File: us_tickers_download/us_tickers/TGA.csv
Date,High,Low,Open,Close,Volume,Adj Close
2018-01-02,1.48,1.44,1.47,1.46,54800.0,1.38098
2018-01-03,1.46,1.36,1.45,1.44,94600.0,1.36207
2018-01-04,1.44,1.4,1.44,1.44,77800.0,1.36207
2018-01-05,1.44,1.41,1.44,1.44,98900.0,1.36207
2018-01-08,1.44,1.42,1.44,1.44,119300.0,1.36207
2018-01-09,1.47,1.43,1.45,1.45,135300.0,1.37153
2018-01-10,1.46,1.42,1.42,1.45,94700.0,1.37153
2018-01-11,1.5,1.44,1.44,1.48,315000.0,1.3999
2018-01-12,1.49,1.45,1.49,1.47,138000.0,1.39044
2018-01-16,1.49,1.43,1.49,1.46,91300.0,1.38098
2018-01-17,1.46,1.44,1.46,1.45,28300.0,1.37153
2018-01-18,1.49,1.44,1.45,1.47,59200.0,1.39044
2018-01-19,1.49,1.45,1.47,1.48,33400.0,1.3999
2018-01-22,1.49,1.46,1.47,1.47,48300.0,1.39044
2018-01-23,1.49,1.44,1.46,1.45,49000.0,1.37153
2018-01-24,1.48,1.45,1.47,1.46,56500.0,1.38098
2018-01-25,1.5,1.46,1.46,1.48,61000.0,1.3999
2018-01-26,1.51,1.48,1.48,1.49,77600.0,1.40936
2018-01-29,1.5,1.46,1.49,1.48,59400.0,1.3999
2018-01-30,1.49,1.38,1.48,1.39,180500.0,1.31477
2018-01-31,1.48,1.38,1.4,1.47,118600.0,1.39044
2018-02-01,1.47,1.44,1.47,1.46,58200.0,1.38098
2018-02-02,1.47,1.4,1.44,1.44,65300.0,1.36207
2018-02-05,1.43,1.35,1.43,1.41,105800.0,1.33369
2018-02-06,1.4,1.36,1.4,1.4,93400.0,1.32423
2018-02-07,1.47,1.37,1.4,1.37,175900.0,1.29585
2018-02-08,1.38,1.29,1.37,1.3,124000.0,1.22964
2018-02-09,1.32,1.24,1.32,1.27,83100.0,1.20127
2018-02-12,1.33,1.27,1.27,1.33,70300.0,1.25802
2018-02-13,1.34,1.31,1.31,1.33,81000.0,1.25802
2018-02-14,1.35,1.3,1.33,1.33,39400.0,1.25802
2018-02-15,1.35,1.3,1.35,1.3,52800.0,1.22964
2018-02-16,1.35,1.3,1.3,1.32,39700.0,1.24856
2018-02-20,1.33,1.31,1.31,1.33,28500.0,1.25802
2018-02-21,1.34,1.28,1.33,1.28,69700.0,1.21073
2018-02-22,1.34,1.28,1.3,1.3,77300.0,1.22964
2018-02-23,1.32,1.28,1.29,1.32,9800.0,1.24856
2018-02-26,1.36,1.31,1.34,1.34,71900.0,1.26748
2018-02-27,1.35,1.27,1.31,1.27,92600.0,1.20127
2018-02-28,1.32,1.26,1.3,1.3,70400.0,1.22964
2018-03-01,1.34,1.28,1.34,1.29,14300.0,1.22018
2018-03-02,1.32,1.2,1.28,1.25,79700.0,1.18235
2018-03-05,1.29,1.24,1.25,1.29,49800.0,1.22018
2018-03-06,1.3,1.27,1.3,1.28,45100.0,1.21073
2018-03-07,1.32,1.27,1.3,1.28,64900.0,1.21073
2018-03-08,1.31,1.27,1.31,1.28,160600.0,1.21073
2018-03-09,1.31,1.28,1.3,1.29,69100.0,1.22018
2018-03-12,1.32,1.28,1.28,1.31,47400.0,1.2391
2018-03-13,1.34,1.28,1.28,1.34,44200.0,1.26748
2018-03-14,1.34,1.32,1.34,1.33,21900.0,1.25802
2018-03-15,1.35,1.31,1.33,1.35,19100.0,1.27694
2018-03-16,1.35,1.32,1.33,1.33,26400.0,1.25802
2018-03-19,1.35,1.32,1.32,1.34,27700.0,1.26748
2018-03-20,1.36,1.33,1.33,1.36,50400.0,1.2864
2018-03-21,1.41,1.34,1.34,1.41,41900.0,1.33369
2018-03-22,1.45,1.41,1.41,1.45,23900.0,1.37153
2018-03-23,1.46,1.42,1.46,1.45,33200.0,1.37153
2018-03-26,1.46,1.38,1.46,1.39,19900.0,1.31477
2018-03-27,1.39,1.34,1.38,1.35,49200.0,1.27694
2018-03-28,1.35,1.31,1.33,1.32,39400.0,1.24856
2018-03-29,1.35,1.31,1.33,1.34,47800.0,1.26748
2018-04-02,1.34,1.31,1.33,1.32,23700.0,1.24856
2018-04-03,1.34,1.31,1.34,1.32,17400.0,1.24856
2018-04-04,1.32,1.3,1.32,1.32,11000.0,1.24856
2018-04-05,1.33,1.25,1.31,1.26,273200.0,1.19181
2018-04-06,1.29,1.26,1.27,1.29,78400.0,1.22018
2018-04-09,1.33,1.25,1.29,1.27,134100.0,1.20127
2018-04-10,1.33,1.28,1.28,1.3,104300.0,1.22964
2018-04-11,1.34,1.29,1.29,1.32,91800.0,1.24856
2018-04-12,1.36,1.3,1.31,1.36,69900.0,1.2864
2018-04-13,1.39,1.33,1.35,1.36,72500.0,1.2864
2018-04-16,1.4,1.35,1.35,1.4,42200.0,1.32423
2018-04-17,1.42,1.37,1.39,1.4,131000.0,1.32423
2018-04-18,1.46,1.39,1.4,1.39,149300.0,1.31477
2018-04-19,1.48,1.4,1.4,1.47,54600.0,1.39044
2018-04-20,1.61,1.48,1.48,1.61,147800.0,1.52287
2018-04-23,1.6,1.53,1.6,1.57,136600.0,1.48503
2018-04-24,1.63,1.55,1.56,1.58,270200.0,1.49449
2018-04-25,1.66,1.55,1.57,1.63,88300.0,1.54178
2018-04-26,1.68,1.62,1.64,1.63,64400.0,1.54178
2018-04-27,1.75,1.63,1.74,1.65,241500.0,1.5607
2018-04-30,1.8,1.67,1.71,1.8,264600.0,1.70258
2018-05-01,1.9,1.78,1.8,1.83,180500.0,1.73096
2018-05-02,1.93,1.83,1.84,1.87,179300.0,1.76879
2018-05-03,1.94,1.85,1.87,1.93,144600.0,1.82555
2018-05-04,1.94,1.84,1.9,1.87,162100.0,1.76879
2018-05-07,2.01,1.88,1.88,1.96,243600.0,1.85392
2018-05-08,2.05,1.91,1.96,1.99,303100.0,1.8823
2018-05-09,2.14,2.02,2.02,2.12,620600.0,2.00526
2018-05-10,2.14,1.98,2.14,2.0,285000.0,1.89176
2018-05-11,2.01,1.78,2.01,1.91,377400.0,1.80663
2018-05-14,1.94,1.86,1.88,1.92,249200.0,1.81609
2018-05-15,2.02,1.9,1.93,1.95,367500.0,1.84447
2018-05-16,2.04,1.93,1.96,1.96,295000.0,1.85392
2018-05-17,2.1,2.03,2.05,2.04,664300.0,1.92959
2018-05-18,2.27,2.06,2.17,2.23,529700.0,2.10931
2018-05-21,2.84,2.35,2.38,2.64,1888900.0,2.49712
2018-05-22,2.75,2.19,2.7,2.24,1550600.0,2.11877
2018-05-23,2.49,2.2,2.21,2.44,686800.0,2.30795
2018-05-24,2.45,2.29,2.4,2.31,392500.0,2.18498
2018-05-25,2.3,2.12,2.3,2.27,518800.0,2.14715
2018-05-29,2.32,2.13,2.24,2.29,290200.0,2.16606
2018-05-30,2.49,2.26,2.28,2.49,483600.0,2.35524
2018-05-31,2.55,2.46,2.49,2.54,363700.0,2.40253
2018-06-01,2.58,2.43,2.56,2.47,415800.0,2.33632
2018-06-04,2.52,2.37,2.47,2.41,431700.0,2.27957
2018-06-05,2.42,2.24,2.39,2.36,428600.0,2.23228
2018-06-06,2.47,2.34,2.37,2.46,266000.0,2.32686
2018-06-07,2.52,2.41,2.49,2.45,279100.0,2.3174
2018-06-08,2.47,2.38,2.45,2.46,189400.0,2.32686
2018-06-11,2.42,2.3,2.39,2.37,482500.0,2.24173
2018-06-12,2.48,2.35,2.35,2.39,291300.0,2.26065
2018-06-13,2.45,2.36,2.39,2.4,401700.0,2.27011
2018-06-14,2.47,2.31,2.42,2.32,246600.0,2.19444
2018-06-15,2.3,2.24,2.3,2.24,431400.0,2.11877
2018-06-18,2.38,2.23,2.23,2.33,253700.0,2.2039
2018-06-19,2.41,2.27,2.34,2.38,239500.0,2.25119
2018-06-20,2.43,2.35,2.4,2.36,212300.0,2.23228
2018-06-21,2.36,2.28,2.36,2.31,178400.0,2.18498
2018-06-22,2.47,2.3,2.34,2.39,528300.0,2.26065
2018-06-25,2.43,2.32,2.36,2.4,165700.0,2.27011
2018-06-26,2.48,2.38,2.43,2.44,511500.0,2.30795
2018-06-27,2.68,2.44,2.44,2.63,920900.0,2.48766
2018-06-28,2.84,2.65,2.65,2.72,793100.0,2.57279
2018-06-29,2.83,2.69,2.77,2.77,641600.0,2.62009
2018-07-02,2.76,2.63,2.76,2.73,303400.0,2.58225
2018-07-03,3.03,2.76,2.76,2.87,940600.0,2.71467
2018-07-05,2.93,2.8,2.9,2.9,784100.0,2.74305
2018-07-06,2.95,2.86,2.94,2.94,503500.0,2.78089
2018-07-09,3.3,2.95,2.98,3.29,1352500.0,3.11194
2018-07-10,3.48,3.32,3.33,3.41,1388600.0,3.22545
2018-07-11,3.92,3.33,3.4,3.76,2036600.0,3.55651
2018-07-12,3.89,3.66,3.89,3.76,1408600.0,3.55651
2018-07-13,4.13,3.76,3.77,4.05,1783500.0,3.83081
2018-07-16,4.0,3.67,4.0,3.77,1696900.0,3.56597
2018-07-17,3.74,3.52,3.74,3.53,1012100.0,3.33895
2018-07-18,3.65,3.37,3.52,3.59,999100.0,3.39571
2018-07-19,3.7,3.56,3.57,3.6,753100.0,3.40517
2018-07-20,3.61,3.39,3.6,3.43,600000.0,3.24437
2018-07-23,3.5,3.36,3.45,3.42,384500.0,3.23491
2018-07-24,3.53,3.37,3.37,3.37,685000.0,3.18761
2018-07-25,3.46,3.31,3.37,3.37,361400.0,3.18761
2018-07-26,3.4,3.28,3.33,3.35,318300.0,3.1687
2018-07-27,3.36,3.14,3.36,3.18,540200.0,3.0079
2018-07-30,3.23,3.11,3.18,3.13,359500.0,2.9606
2018-07-31,3.3,3.08,3.14,3.24,421700.0,3.06465
2018-08-01,3.3,3.13,3.24,3.24,330400.0,3.06465
2018-08-02,3.27,3.12,3.23,3.16,247800.0,2.98898
2018-08-03,3.27,3.16,3.17,3.22,581300.0,3.04573
2018-08-06,3.3,3.07,3.2,3.09,430400.0,2.92277
2018-08-07,3.28,3.1,3.1,3.19,304700.0,3.01736
2018-08-08,3.24,3.16,3.17,3.21,418900.0,3.03627
2018-08-09,3.24,3.13,3.21,3.21,209200.0,3.03627
2018-08-10,3.23,3.14,3.2,3.19,363500.0,3.01736
2018-08-13,3.22,3.02,3.22,3.06,533600.0,2.89439
2018-08-14,3.5,2.95,3.19,3.14,2481700.0,2.97006
2018-08-15,3.12,2.83,3.11,2.93,731000.0,2.77143
2018-08-16,3.11,2.88,2.92,3.07,606000.0,2.90385
2018-08-17,3.22,3.07,3.09,3.12,647200.0,2.95114
2018-08-20,3.38,3.1,3.1,3.33,444800.0,3.14978
2018-08-21,3.58,3.31,3.38,3.47,575500.0,3.2822
2018-08-22,3.58,3.43,3.5,3.47,473800.0,3.2822
2018-08-23,3.5,3.25,3.5,3.42,553800.0,3.23491
2018-08-24,3.6,3.43,3.43,3.49,290700.0,3.30112
2018-08-27,3.53,3.42,3.49,3.47,231800.0,3.2822
2018-08-28,3.53,3.42,3.43,3.43,285900.0,3.24437
2018-08-29,3.5,3.42,3.44,3.46,149800.0,3.27274
2018-08-30,3.61,3.35,3.45,3.39,311100.0,3.2393
2018-08-31,3.39,3.31,3.36,3.36,143000.0,3.21063
2018-09-04,3.38,3.26,3.38,3.32,220900.0,3.17241
2018-09-05,3.37,3.19,3.3,3.3,448500.0,3.1533
2018-09-06,3.35,3.18,3.28,3.24,251700.0,3.09597
2018-09-07,3.24,3.16,3.19,3.21,119200.0,3.0673
2018-09-10,3.51,3.24,3.25,3.51,942600.0,3.35396
2018-09-11,3.81,3.52,3.6,3.74,805200.0,3.57374
2018-09-12,3.85,3.5,3.8,3.63,377300.0,3.46863
2018-09-13,3.7,3.54,3.56,3.57,237800.0,3.4113
2018-09-14,3.68,3.51,3.51,3.63,214700.0,3.46863
2018-09-17,3.65,3.53,3.61,3.55,185700.0,3.39219
2018-09-18,3.59,3.37,3.56,3.39,365300.0,3.2393
2018-09-19,3.41,3.35,3.4,3.39,184100.0,3.2393
2018-09-20,3.4,3.25,3.38,3.31,356300.0,3.16286
2018-09-21,3.36,3.23,3.31,3.32,286300.0,3.17241
2018-09-24,3.48,3.31,3.31,3.44,460400.0,3.28708
2018-09-25,3.7,3.41,3.51,3.44,703300.0,3.28708
2018-09-26,3.44,3.33,3.43,3.34,448800.0,3.19152
2018-09-27,3.35,3.28,3.35,3.3,413900.0,3.1533
2018-09-28,3.44,3.27,3.29,3.34,765400.0,3.19152
2018-10-01,3.57,3.35,3.35,3.52,466200.0,3.36352
2018-10-02,3.56,3.45,3.5,3.47,452700.0,3.31574
2018-10-03,3.51,3.36,3.48,3.45,776300.0,3.29663
2018-10-04,3.47,3.28,3.45,3.32,681800.0,3.17241
2018-10-05,3.36,3.11,3.31,3.32,1167900.0,3.17241
2018-10-08,3.3,3.16,3.3,3.28,303600.0,3.13419
2018-10-09,3.41,3.14,3.21,3.35,157100.0,3.20108
2018-10-10,3.37,3.16,3.36,3.18,345000.0,3.03863
2018-10-11,3.21,2.99,3.14,3.0,497800.0,2.86664
2018-10-12,3.17,3.05,3.05,3.1,400000.0,2.96219
2018-10-15,3.15,3.0,3.1,3.02,372100.0,2.88575
2018-10-16,3.14,3.0,3.01,3.11,318600.0,2.97175
2018-10-17,3.13,3.01,3.11,3.09,230100.0,2.95264
2018-10-18,3.08,2.95,3.05,3.02,676200.0,2.88575
2018-10-19,3.1,2.97,3.04,2.99,229600.0,2.85708
2018-10-22,3.0,2.55,2.97,2.59,1288400.0,2.47486
2018-10-23,2.6,2.02,2.52,2.03,2656500.0,1.93976
2018-10-24,2.44,2.06,2.06,2.34,1109300.0,2.23598
2018-10-25,2.5,2.27,2.38,2.45,526100.0,2.34109
2018-10-26,2.51,2.38,2.4,2.45,370400.0,2.34109
2018-10-29,2.49,2.27,2.46,2.31,321100.0,2.20731
2018-10-30,2.35,2.18,2.28,2.31,537200.0,2.20731
2018-10-31,2.42,2.3,2.33,2.31,209200.0,2.20731
2018-11-01,2.47,2.28,2.33,2.47,244200.0,2.3602
2018-11-02,2.48,2.31,2.46,2.36,218000.0,2.25509
2018-11-05,2.42,2.3,2.36,2.37,210500.0,2.26464
2018-11-06,2.42,2.32,2.38,2.39,181300.0,2.28375
2018-11-07,2.51,2.37,2.4,2.41,118400.0,2.30286
2018-11-08,2.37,2.14,2.3,2.22,358600.0,2.12131
2018-11-09,2.21,2.09,2.21,2.17,167900.0,2.07353
2018-11-12,2.2,2.05,2.16,2.11,279500.0,2.0162
2018-11-13,2.47,2.07,2.1,2.38,508300.0,2.2742
2018-11-14,2.42,2.12,2.41,2.15,243400.0,2.05442
2018-11-15,2.26,2.05,2.05,2.19,88100.0,2.09264
2018-11-16,2.26,2.12,2.22,2.25,139400.0,2.14998
2018-11-19,2.44,2.23,2.32,2.32,357900.0,2.21687
2018-11-20,2.3,2.08,2.26,2.14,271700.0,2.04487
2018-11-21,2.23,2.15,2.16,2.22,123900.0,2.12131
2018-11-23,2.17,2.1,2.16,2.13,43000.0,2.03531
2018-11-26,2.21,2.14,2.14,2.17,263700.0,2.07353
2018-11-27,2.17,1.97,2.14,2.01,248100.0,1.92065
2018-11-28,2.07,1.96,2.03,2.05,185400.0,1.95887
2018-11-29,2.19,2.0,2.08,2.17,175700.0,2.07353
2018-11-30,2.17,2.1,2.13,2.16,138600.0,2.06398
2018-12-03,2.23,2.15,2.17,2.18,139500.0,2.08309
2018-12-04,2.18,2.11,2.18,2.13,138100.0,2.03531
2018-12-06,2.15,1.92,2.11,1.96,267500.0,1.87287
2018-12-07,2.07,1.97,2.03,2.0,161900.0,1.91109
2018-12-10,1.98,1.8,1.98,1.81,350900.0,1.72954
2018-12-11,1.91,1.82,1.85,1.9,114300.0,1.81554
2018-12-12,1.95,1.87,1.92,1.88,219900.0,1.79643
2018-12-13,1.92,1.83,1.89,1.86,146800.0,1.77731
2018-12-14,1.88,1.77,1.85,1.78,77100.0,1.70087
2018-12-17,1.84,1.75,1.79,1.77,336800.0,1.69132
2018-12-18,1.78,1.7,1.78,1.71,187600.0,1.63398
2018-12-19,1.75,1.64,1.71,1.66,182000.0,1.58621
2018-12-20,1.66,1.55,1.66,1.62,302600.0,1.54798
2018-12-21,1.64,1.55,1.61,1.58,257200.0,1.50976
2018-12-24,1.57,1.5,1.55,1.52,131900.0,1.45243
2018-12-26,1.68,1.48,1.52,1.66,144900.0,1.58621
2018-12-27,1.68,1.58,1.62,1.68,116300.0,1.60532
2018-12-28,1.73,1.63,1.68,1.69,117000.0,1.61487
2018-12-31,1.88,1.69,1.7,1.87,240200.0,1.78687
2019-01-02,1.94,1.77,1.86,1.8,271300.0,1.71998
2019-01-03,1.89,1.76,1.85,1.89,73200.0,1.80598
2019-01-04,1.97,1.87,1.92,1.94,171100.0,1.85376
2019-01-07,2.13,1.93,1.93,2.07,182600.0,1.97798
2019-01-08,2.09,1.98,2.09,2.04,74400.0,1.94931
2019-01-09,2.11,2.03,2.06,2.09,135900.0,1.99709
2019-01-10,2.06,2.0,2.06,2.03,45600.0,1.93976
2019-01-11,2.03,1.97,2.03,1.98,36200.0,1.89198
2019-01-14,1.99,1.91,1.96,1.94,60700.0,1.85376
2019-01-15,2.01,1.94,1.96,1.96,55200.0,1.87287
2019-01-16,2.0,1.93,1.96,1.94,82000.0,1.85376
2019-01-17,1.96,1.9,1.92,1.94,40400.0,1.85376
2019-01-18,1.94,1.84,1.94,1.89,166500.0,1.80598
2019-01-22,1.89,1.75,1.8,1.76,97100.0,1.68176
2019-01-23,1.84,1.75,1.76,1.75,95100.0,1.6722
2019-01-24,1.86,1.76,1.76,1.79,96800.0,1.71043
2019-01-25,1.88,1.77,1.82,1.86,42600.0,1.77731
2019-01-28,1.85,1.77,1.84,1.79,16800.0,1.71043
2019-01-29,1.82,1.67,1.8,1.73,257800.0,1.65309
2019-01-30,1.85,1.72,1.72,1.83,167500.0,1.74865
2019-01-31,1.9,1.78,1.85,1.81,88300.0,1.72954
2019-02-01,1.99,1.82,1.82,1.93,101700.0,1.8442
2019-02-04,1.95,1.86,1.93,1.93,29100.0,1.8442
2019-02-05,1.94,1.88,1.93,1.92,42500.0,1.83465
2019-02-06,1.96,1.88,1.91,1.93,42400.0,1.8442
2019-02-07,1.94,1.83,1.93,1.87,23400.0,1.78687
2019-02-08,1.91,1.8,1.86,1.84,63300.0,1.7582
2019-02-11,1.86,1.8,1.83,1.85,50600.0,1.76776
2019-02-12,1.92,1.85,1.88,1.91,40900.0,1.82509
2019-02-13,2.0,1.93,1.93,1.98,90000.0,1.89198
2019-02-14,2.05,1.96,1.96,2.01,94400.0,1.92065
2019-02-15,2.12,2.03,2.03,2.09,135300.0,1.99709
2019-02-19,2.18,2.06,2.09,2.12,204800.0,2.02576
2019-02-20,2.19,1.97,2.14,2.01,96700.0,1.92065
2019-02-21,2.08,2.0,2.0,2.02,95500.0,1.9302
2019-02-22,2.1,2.02,2.03,2.07,78900.0,1.97798
2019-02-25,2.09,2.02,2.07,2.04,52100.0,1.94931
2019-02-26,2.06,1.96,2.03,1.98,70000.0,1.89198
2019-02-27,2.04,2.0,2.0,2.02,26100.0,1.9302
2019-02-28,2.05,1.98,2.03,1.98,72500.0,1.89198
2019-03-01,2.05,1.96,2.0,1.98,102700.0,1.89198
2019-03-04,2.04,1.98,2.0,1.98,74400.0,1.89198
2019-03-05,2.14,2.0,2.0,2.06,63600.0,1.96842
2019-03-06,2.2,2.02,2.04,2.04,130700.0,1.94931
2019-03-07,2.07,1.99,2.01,2.04,44900.0,1.94931
2019-03-08,2.06,1.98,2.02,2.02,59000.0,1.9302
2019-03-11,2.13,2.03,2.03,2.07,59500.0,1.97798
2019-03-12,2.16,2.06,2.07,2.11,143000.0,2.0162
2019-03-13,2.16,2.06,2.11,2.08,93900.0,1.98753
2019-03-14,2.19,2.03,2.1,2.08,106100.0,1.98753
2019-03-15,2.11,2.01,2.08,2.03,202000.0,1.93976
2019-03-18,2.19,2.07,2.07,2.17,131100.0,2.07353
2019-03-19,2.19,2.13,2.17,2.14,71000.0,2.04487
2019-03-20,2.18,2.12,2.18,2.14,155900.0,2.04487
2019-03-21,2.16,2.09,2.13,2.09,124400.0,1.99709
2019-03-22,2.09,1.97,2.09,1.98,270000.0,1.89198
2019-03-25,1.98,1.82,1.98,1.86,337700.0,1.77731
2019-03-26,1.9,1.72,1.87,1.75,448300.0,1.6722
2019-03-27,1.86,1.75,1.76,1.84,85600.0,1.7582
2019-03-28,1.87,1.81,1.81,1.85,138200.0,1.80204
2019-03-29,1.95,1.86,1.87,1.89,83000.0,1.841
2019-04-01,1.94,1.82,1.93,1.86,216800.0,1.81178
2019-04-02,1.9,1.85,1.85,1.86,108300.0,1.81178
2019-04-03,1.87,1.79,1.87,1.8,76700.0,1.75333
2019-04-04,1.83,1.77,1.81,1.79,53700.0,1.74359
2019-04-05,1.86,1.77,1.79,1.84,88400.0,1.7923
2019-04-08,1.91,1.85,1.85,1.88,98800.0,1.83126
2019-04-09,1.89,1.85,1.86,1.86,56600.0,1.81178
2019-04-10,1.95,1.86,1.86,1.89,112900.0,1.841
2019-04-11,1.97,1.86,1.88,1.88,88100.0,1.83126
2019-04-12,1.95,1.87,1.93,1.88,149700.0,1.83126
2019-04-15,1.88,1.83,1.88,1.86,132000.0,1.81178
2019-04-16,1.89,1.84,1.86,1.86,68000.0,1.81178
2019-04-17,1.87,1.83,1.83,1.86,58400.0,1.81178
2019-04-18,1.88,1.85,1.85,1.88,76700.0,1.83126
2019-04-22,2.01,1.9,1.9,1.95,134900.0,1.89944
2019-04-23,2.01,1.89,1.96,1.89,328000.0,1.841
2019-04-24,1.97,1.89,1.95,1.92,158900.0,1.87022
2019-04-25,1.95,1.9,1.92,1.93,68200.0,1.87996
2019-04-26,1.92,1.85,1.92,1.9,97100.0,1.85074
2019-04-29,1.95,1.87,1.9,1.95,51500.0,1.89944
2019-04-30,1.97,1.92,1.95,1.95,58200.0,1.89944
2019-05-01,1.96,1.91,1.96,1.92,42400.0,1.87022
2019-05-02,1.91,1.87,1.91,1.89,34600.0,1.841
2019-05-03,1.9,1.84,1.9,1.88,164500.0,1.83126
2019-05-06,1.88,1.85,1.88,1.87,148500.0,1.82152
2019-05-07,1.86,1.79,1.83,1.84,97000.0,1.7923
2019-05-08,1.86,1.82,1.82,1.82,60700.0,1.77281
2019-05-09,1.83,1.79,1.83,1.81,34000.0,1.76307
2019-05-10,1.83,1.78,1.8,1.78,103500.0,1.73385
2019-05-13,1.8,1.75,1.79,1.77,79300.0,1.72411
2019-05-14,1.81,1.76,1.78,1.76,155500.0,1.71437
2019-05-15,1.78,1.74,1.75,1.75,205600.0,1.70463
2019-05-16,1.79,1.75,1.76,1.76,70200.0,1.71437
2019-05-17,1.76,1.73,1.74,1.73,40100.0,1.68515
2019-05-20,1.73,1.68,1.72,1.7,189300.0,1.65593
2019-05-21,1.72,1.66,1.68,1.67,117400.0,1.6267
2019-05-22,1.69,1.6,1.66,1.6,102400.0,1.55852
2019-05-23,1.6,1.5,1.6,1.52,143700.0,1.48059
2019-05-24,1.59,1.49,1.52,1.51,135500.0,1.47085
2019-05-28,1.56,1.5,1.51,1.51,123000.0,1.47085
2019-05-29,1.56,1.5,1.52,1.51,98100.0,1.47085
2019-05-30,1.55,1.5,1.53,1.5,94500.0,1.46111
2019-05-31,1.52,1.44,1.49,1.5,105100.0,1.46111
2019-06-03,1.57,1.5,1.5,1.53,106200.0,1.49033
2019-06-04,1.55,1.49,1.53,1.54,64800.0,1.50007
2019-06-05,1.54,1.5,1.54,1.53,103800.0,1.49033
2019-06-06,1.54,1.51,1.53,1.51,68000.0,1.47085
2019-06-07,1.55,1.51,1.51,1.55,81600.0,1.50981
2019-06-10,1.56,1.47,1.54,1.49,195500.0,1.45137
2019-06-11,1.5,1.45,1.49,1.47,138200.0,1.43189
2019-06-12,1.5,1.4,1.47,1.42,141900.0,1.38319
2019-06-13,1.48,1.44,1.44,1.46,39900.0,1.42215
2019-06-14,1.47,1.38,1.47,1.4,122100.0,1.3637
2019-06-17,1.43,1.38,1.41,1.41,57100.0,1.37344
2019-06-18,1.46,1.41,1.43,1.45,59300.0,1.41241
2019-06-19,1.48,1.39,1.48,1.4,164500.0,1.3637
2019-06-20,1.47,1.41,1.42,1.45,250900.0,1.41241
2019-06-21,1.44,1.41,1.41,1.41,340600.0,1.37344
2019-06-24,1.43,1.38,1.43,1.39,102000.0,1.35396
2019-06-25,1.42,1.38,1.39,1.4,213000.0,1.3637
2019-06-26,1.45,1.37,1.41,1.42,220000.0,1.38319
2019-06-27,1.42,1.39,1.39,1.42,54300.0,1.38319
2019-06-28,1.42,1.39,1.42,1.39,56200.0,1.35396
2019-07-01,1.44,1.39,1.39,1.4,49200.0,1.3637
2019-07-02,1.44,1.35,1.44,1.36,85300.0,1.32474
2019-07-03,1.37,1.36,1.37,1.36,33300.0,1.32474
2019-07-05,1.37,1.34,1.37,1.35,61800.0,1.315
2019-07-08,1.4,1.34,1.35,1.35,268800.0,1.315
2019-07-09,1.38,1.34,1.35,1.37,101700.0,1.33448
2019-07-10,1.46,1.38,1.38,1.45,426000.0,1.41241
2019-07-11,1.5,1.45,1.5,1.47,167500.0,1.43189
2019-07-12,1.48,1.45,1.47,1.47,100800.0,1.43189
2019-07-15,1.5,1.46,1.47,1.48,75300.0,1.44163
2019-07-16,1.49,1.46,1.48,1.46,62800.0,1.42215
2019-07-17,1.47,1.43,1.47,1.43,175400.0,1.39293
2019-07-18,1.45,1.43,1.44,1.43,100100.0,1.39293
2019-07-19,1.46,1.42,1.43,1.45,102600.0,1.41241
2019-07-22,1.47,1.41,1.46,1.43,132800.0,1.39293
2019-07-23,1.46,1.43,1.45,1.45,20800.0,1.41241
2019-07-24,1.48,1.45,1.45,1.45,43500.0,1.41241
2019-07-25,1.47,1.41,1.47,1.41,44800.0,1.37344
2019-07-26,1.41,1.36,1.41,1.38,89300.0,1.34422
2019-07-29,1.43,1.38,1.38,1.4,121600.0,1.3637
2019-07-30,1.49,1.36,1.39,1.48,180000.0,1.44163
2019-07-31,1.55,1.47,1.49,1.55,195400.0,1.50981
2019-08-01,1.59,1.5,1.55,1.53,174100.0,1.49033
2019-08-02,1.55,1.45,1.52,1.46,98200.0,1.42215
2019-08-05,1.48,1.4,1.44,1.46,111000.0,1.42215
2019-08-06,1.46,1.42,1.45,1.43,201500.0,1.39293
2019-08-07,1.46,1.38,1.42,1.44,104800.0,1.40267
2019-08-08,1.46,1.41,1.43,1.44,134600.0,1.40267
2019-08-09,1.48,1.42,1.45,1.43,40800.0,1.39293
2019-08-12,1.48,1.4,1.42,1.48,124200.0,1.44163
2019-08-13,1.55,1.46,1.47,1.52,216100.0,1.48059
2019-08-14,1.52,1.42,1.52,1.43,146100.0,1.39293
2019-08-15,1.45,1.4,1.45,1.44,149100.0,1.40267
2019-08-16,1.49,1.4,1.45,1.47,107700.0,1.43189
2019-08-19,1.49,1.42,1.47,1.45,143000.0,1.41241
2019-08-20,1.46,1.4,1.45,1.42,52300.0,1.38319
2019-08-21,1.47,1.42,1.42,1.44,28400.0,1.40267
2019-08-22,1.45,1.42,1.45,1.43,38000.0,1.39293
2019-08-23,1.43,1.34,1.43,1.35,177600.0,1.315
2019-08-26,1.38,1.32,1.37,1.33,114800.0,1.29552
2019-08-27,1.36,1.3,1.34,1.33,94900.0,1.29552
2019-08-28,1.36,1.34,1.34,1.35,99900.0,1.315
2019-08-29,1.36,1.31,1.33,1.35,139200.0,1.35
2019-08-30,1.37,1.31,1.35,1.33,107800.0,1.33
2019-09-03,1.33,1.29,1.33,1.33,85900.0,1.33
2019-09-04,1.37,1.33,1.35,1.35,261900.0,1.35
2019-09-05,1.37,1.32,1.36,1.37,68900.0,1.37
2019-09-06,1.43,1.35,1.37,1.4,68300.0,1.4
2019-09-09,1.46,1.41,1.41,1.45,130400.0,1.45
2019-09-10,1.5,1.44,1.46,1.49,260700.0,1.49
2019-09-11,1.53,1.46,1.5,1.48,152800.0,1.48
2019-09-12,1.49,1.41,1.49,1.43,225100.0,1.43
2019-09-13,1.46,1.38,1.44,1.41,191600.0,1.41
2019-09-16,1.6,1.49,1.5,1.52,382500.0,1.52
2019-09-17,1.52,1.43,1.51,1.46,138700.0,1.46
2019-09-18,1.5,1.43,1.46,1.44,274600.0,1.44
2019-09-19,1.49,1.44,1.44,1.47,76600.0,1.47
2019-09-20,1.48,1.4,1.48,1.43,216400.0,1.43
2019-09-23,1.48,1.38,1.38,1.41,212300.0,1.41
2019-09-24,1.43,1.38,1.41,1.39,107400.0,1.39
2019-09-25,1.4,1.36,1.38,1.37,92500.0,1.37
2019-09-26,1.37,1.34,1.37,1.36,169800.0,1.36
2019-09-27,1.36,1.32,1.35,1.33,168800.0,1.33
2019-09-30,1.35,1.31,1.33,1.33,110100.0,1.33
2019-10-01,1.35,1.3,1.32,1.32,213100.0,1.32
2019-10-02,1.32,1.26,1.31,1.28,233300.0,1.28
2019-10-03,1.28,1.26,1.28,1.28,131100.0,1.28
2019-10-04,1.31,1.28,1.28,1.31,28900.0,1.31
2019-10-07,1.33,1.31,1.31,1.32,33300.0,1.32
2019-10-08,1.35,1.29,1.35,1.31,91700.0,1.31
2019-10-09,1.34,1.28,1.31,1.3,99800.0,1.3
2019-10-10,1.31,1.25,1.31,1.27,240400.0,1.27
2019-10-11,1.33,1.26,1.28,1.29,287800.0,1.29
2019-10-14,1.3,1.28,1.29,1.3,35700.0,1.3
2019-10-15,1.33,1.28,1.29,1.29,74000.0,1.29
2019-10-16,1.32,1.26,1.29,1.26,62500.0,1.26
2019-10-17,1.27,1.25,1.27,1.27,112500.0,1.27
2019-10-18,1.29,1.24,1.27,1.25,110800.0,1.25
2019-10-21,1.27,1.24,1.25,1.25,48300.0,1.25
2019-10-22,1.27,1.23,1.25,1.24,137000.0,1.24
2019-10-23,1.27,1.22,1.24,1.23,134100.0,1.23
2019-10-24,1.27,1.22,1.24,1.23,123700.0,1.23
2019-10-25,1.26,1.2,1.22,1.21,169900.0,1.21
2019-10-28,1.22,1.19,1.2,1.2,139000.0,1.2
2019-10-29,1.21,1.17,1.19,1.19,226400.0,1.19
2019-10-30,1.19,1.16,1.18,1.17,80600.0,1.17
2019-10-31,1.17,1.15,1.17,1.16,81300.0,1.16
2019-11-01,1.22,1.15,1.16,1.17,158300.0,1.17
2019-11-04,1.24,1.18,1.19,1.24,285600.0,1.24
2019-11-05,1.28,1.23,1.24,1.26,110900.0,1.26
2019-11-06,1.27,1.21,1.27,1.23,56700.0,1.23
2019-11-07,1.25,1.23,1.23,1.24,73200.0,1.24
2019-11-08,1.24,1.2,1.23,1.23,72400.0,1.23
2019-11-11,1.23,1.2,1.22,1.22,76700.0,1.22
2019-11-12,1.22,1.18,1.22,1.18,150100.0,1.18
2019-11-13,1.18,1.16,1.18,1.17,52400.0,1.17
2019-11-14,1.21,1.16,1.17,1.17,41000.0,1.17
2019-11-15,1.19,1.17,1.17,1.18,123400.0,1.18
2019-11-18,1.19,1.12,1.19,1.13,303300.0,1.13
2019-11-19,1.15,1.11,1.11,1.12,259800.0,1.12
2019-11-20,1.16,1.09,1.11,1.14,238200.0,1.14
2019-11-21,1.17,1.14,1.15,1.14,103500.0,1.14
2019-11-22,1.17,1.13,1.15,1.14,103600.0,1.14
2019-11-25,1.16,1.11,1.15,1.14,199300.0,1.14
2019-11-26,1.17,1.13,1.15,1.16,118700.0,1.16
2019-11-27,1.17,1.14,1.16,1.14,77100.0,1.14
2019-11-29,1.15,1.12,1.14,1.13,278100.0,1.13
2019-12-02,1.17,1.07,1.11,1.12,163700.0,1.12
2019-12-03,1.13,1.12,1.13,1.13,27800.0,1.13
2019-12-04,1.15,1.11,1.13,1.14,220900.0,1.14
2019-12-05,1.17,1.13,1.15,1.14,171700.0,1.14
2019-12-06,1.2,1.15,1.16,1.19,155700.0,1.19
2019-12-09,1.21,1.18,1.2,1.18,245400.0,1.18
2019-12-10,1.2,1.16,1.19,1.19,99400.0,1.19
2019-12-11,1.19,1.17,1.18,1.19,72200.0,1.19
2019-12-12,1.23,1.17,1.19,1.23,179300.0,1.23
2019-12-13,1.3,1.23,1.23,1.27,183100.0,1.27
2019-12-16,1.32,1.26,1.27,1.28,179400.0,1.28
2019-12-17,1.31,1.24,1.28,1.25,239400.0,1.25
2019-12-18,1.32,1.24,1.28,1.3,115400.0,1.3
2019-12-19,1.39,1.32,1.35,1.39,338000.0,1.39
2019-12-20,1.46,1.36,1.36,1.45,409800.0,1.45
2019-12-23,1.53,1.47,1.47,1.48,245300.0,1.48
2019-12-24,1.49,1.45,1.49,1.45,55100.0,1.45
2019-12-26,1.48,1.4,1.45,1.44,108800.0,1.44
2019-12-27,1.47,1.43,1.43,1.43,134400.0,1.43
2019-12-30,1.49,1.43,1.44,1.48,183700.0,1.48
2019-12-31,1.57,1.36,1.48,1.38,723900.0,1.38
2020-01-02,1.48,1.37,1.4,1.46,125700.0,1.46
2020-01-03,1.5,1.42,1.49,1.45,257400.0,1.45
2020-01-06,1.46,1.4,1.46,1.42,212800.0,1.42
2020-01-07,1.42,1.39,1.4,1.4,105000.0,1.4
2020-01-08,1.43,1.33,1.4,1.34,203800.0,1.34
2020-01-09,1.4,1.26,1.33,1.39,299500.0,1.39
2020-01-10,1.42,1.35,1.4,1.41,101700.0,1.41
2020-01-13,1.44,1.32,1.42,1.43,151600.0,1.43
2020-01-14,1.44,1.38,1.42,1.38,106100.0,1.38
2020-01-15,1.4,1.34,1.4,1.36,78500.0,1.36
2020-01-16,1.39,1.34,1.34,1.38,72800.0,1.38
2020-01-17,1.41,1.34,1.39,1.39,166600.0,1.39
2020-01-21,1.41,1.32,1.41,1.34,116700.0,1.34
2020-01-22,1.37,1.33,1.36,1.36,83400.0,1.36
2020-01-23,1.36,1.29,1.36,1.31,174300.0,1.31
2020-01-24,1.36,1.26,1.29,1.27,123900.0,1.27
2020-01-27,1.26,1.2,1.26,1.22,188400.0,1.22
2020-01-28,1.28,1.22,1.23,1.26,79200.0,1.26
2020-01-29,1.27,1.23,1.27,1.24,36800.0,1.24
2020-01-30,1.32,1.2,1.2,1.3,164600.0,1.3
2020-01-31,1.29,1.21,1.29,1.28,115300.0,1.28
2020-02-03,1.28,1.22,1.28,1.25,79300.0,1.25
2020-02-04,1.3,1.26,1.26,1.29,36400.0,1.29
2020-02-05,1.33,1.27,1.3,1.28,159100.0,1.28
2020-02-06,1.31,1.24,1.28,1.3,38500.0,1.3
2020-02-07,1.3,1.24,1.3,1.28,78300.0,1.28
2020-02-10,1.3,1.23,1.3,1.25,56800.0,1.25
2020-02-11,1.26,1.23,1.26,1.23,64500.0,1.23
2020-02-12,1.3,1.21,1.24,1.24,151100.0,1.24
2020-02-13,1.27,1.21,1.27,1.23,41300.0,1.23
2020-02-14,1.26,1.19,1.26,1.2,370100.0,1.2
2020-02-18,1.25,1.19,1.2,1.2,105200.0,1.2
2020-02-19,1.24,1.19,1.24,1.22,144900.0,1.22
2020-02-20,1.24,1.2,1.22,1.22,88600.0,1.22
2020-02-21,1.24,1.2,1.2,1.22,38900.0,1.22
2020-02-24,1.23,1.17,1.18,1.21,87700.0,1.21
2020-02-25,1.23,1.16,1.21,1.18,165500.0,1.18
2020-02-26,1.21,1.05,1.17,1.14,173100.0,1.14
2020-02-27,1.14,1.02,1.13,1.08,409700.0,1.08
2020-02-28,1.09,1.01,1.01,1.09,307200.0,1.09
2020-03-02,1.12,1.07,1.09,1.1,69200.0,1.1
2020-03-03,1.15,1.07,1.11,1.11,64500.0,1.11
2020-03-04,1.12,1.08,1.11,1.09,47100.0,1.09
2020-03-05,1.1,1.06,1.07,1.08,81800.0,1.08
2020-03-06,1.07,0.95,1.06,0.97,379800.0,0.97
2020-03-09,0.8,0.64,0.8,0.69,884200.0,0.69
2020-03-10,0.83,0.68,0.75,0.79,188500.0,0.79
2020-03-11,0.79,0.61,0.79,0.64,203900.0,0.64
2020-03-12,0.6,0.49,0.5,0.56,446400.0,0.56
2020-03-13,0.58,0.46,0.58,0.48,443700.0,0.48
2020-03-16,0.52,0.36,0.36,0.51,190200.0,0.51
2020-03-17,0.51,0.41,0.51,0.46,52300.0,0.46
2020-03-18,0.43,0.34,0.42,0.39,290400.0,0.39
2020-03-19,0.45,0.32,0.45,0.38,206300.0,0.38
2020-03-20,0.4,0.34,0.4,0.38,329400.0,0.38
2020-03-23,0.4,0.35,0.39,0.39,111700.0,0.39
2020-03-24,0.45,0.38,0.4,0.42,160900.0,0.42
2020-03-25,0.53,0.4,0.43,0.47,590200.0,0.47
2020-03-26,0.53,0.4,0.5,0.4,332000.0,0.4
2020-03-27,0.42,0.37,0.4,0.39,112500.0,0.39
2020-03-30,0.41,0.35,0.41,0.36,196800.0,0.36
2020-03-31,0.4,0.35,0.36,0.36,236500.0,0.36
2020-04-01,0.41,0.3,0.4,0.34,361000.0,0.34
2020-04-02,0.41,0.34,0.35,0.39,566700.0,0.39
2020-04-03,0.48,0.36,0.39,0.4,380600.0,0.4
2020-04-06,0.43,0.38,0.4,0.41,126400.0,0.41
2020-04-07,0.44,0.39,0.41,0.4,130300.0,0.4
2020-04-08,0.45,0.39,0.4,0.45,74400.0,0.45
2020-04-09,0.51,0.45,0.46,0.48,214800.0,0.48
2020-04-13,0.5,0.42,0.49,0.43,199900.0,0.43
2020-04-14,0.47,0.42,0.43,0.44,125000.0,0.44
2020-04-15,0.46,0.4,0.41,0.43,92500.0,0.43
2020-04-16,0.47,0.38,0.43,0.41,84700.0,0.41
2020-04-17,0.44,0.38,0.42,0.44,93100.0,0.44
2020-04-20,0.46,0.4,0.44,0.43,96300.0,0.43
2020-04-21,0.43,0.38,0.43,0.42,73700.0,0.42
2020-04-22,0.45,0.4,0.44,0.43,80300.0,0.43
2020-04-23,0.47,0.4,0.43,0.45,115300.0,0.45
2020-04-24,0.51,0.45,0.46,0.45,128600.0,0.45
2020-04-27,0.5,0.43,0.5,0.47,85000.0,0.47
2020-04-28,0.47,0.43,0.45,0.47,81500.0,0.47
2020-04-29,0.58,0.47,0.48,0.56,347600.0,0.56
2020-04-30,0.67,0.58,0.6,0.62,321600.0,0.62
2020-05-01,0.67,0.51,0.64,0.57,235500.0,0.57
2020-05-04,0.65,0.53,0.57,0.55,134100.0,0.55
2020-05-05,0.63,0.56,0.57,0.56,265000.0,0.56
2020-05-06,0.6,0.51,0.59,0.53,74000.0,0.53
2020-05-07,0.59,0.54,0.55,0.55,70500.0,0.55
2020-05-08,0.55,0.51,0.54,0.55,114800.0,0.55
2020-05-11,0.56,0.5,0.56,0.52,87200.0,0.52
2020-05-12,0.52,0.47,0.5,0.49,164900.0,0.49
2020-05-13,0.5,0.46,0.48,0.49,62200.0,0.49
2020-05-14,0.48,0.45,0.47,0.47,61000.0,0.47
2020-05-15,0.5,0.45,0.47,0.5,91000.0,0.5
2020-05-18,0.53,0.51,0.52,0.52,121100.0,0.52
2020-05-19,0.53,0.48,0.48,0.52,198500.0,0.52
2020-05-20,0.54,0.5,0.53,0.54,177200.0,0.54
2020-05-21,0.57,0.51,0.54,0.57,88300.0,0.57
2020-05-22,0.57,0.53,0.54,0.54,69000.0,0.54
2020-05-26,0.57,0.51,0.52,0.56,183000.0,0.56
2020-05-27,0.57,0.52,0.56,0.54,88800.0,0.54
2020-05-28,0.56,0.51,0.56,0.54,149800.0,0.54
2020-05-29,0.53,0.5,0.52,0.53,142600.0,0.53
2020-06-01,0.56,0.51,0.51,0.52,117900.0,0.52
2020-06-02,0.54,0.49,0.5,0.52,306700.0,0.52
2020-06-03,0.56,0.5,0.52,0.54,166400.0,0.54
2020-06-04,0.61,0.52,0.55,0.59,279900.0,0.59
2020-06-05,0.67,0.61,0.64,0.63,422100.0,0.63
2020-06-08,0.75,0.66,0.7,0.71,521100.0,0.71
2020-06-09,0.73,0.64,0.73,0.69,268500.0,0.69
2020-06-10,0.69,0.59,0.69,0.63,271600.0,0.63
2020-06-11,0.6,0.54,0.56,0.57,164300.0,0.57
2020-06-12,0.62,0.58,0.61,0.6,153700.0,0.6
2020-06-15,0.6,0.55,0.57,0.59,103800.0,0.59
2020-06-16,0.65,0.55,0.57,0.58,132400.0,0.58
2020-06-17,0.6,0.55,0.58,0.58,110300.0,0.58
2020-06-18,0.59,0.55,0.57,0.57,62300.0,0.57
2020-06-19,0.59,0.55,0.56,0.55,196300.0,0.55
2020-06-22,0.59,0.53,0.55,0.58,154800.0,0.58
2020-06-23,0.6,0.56,0.57,0.58,180500.0,0.58
2020-06-24,0.61,0.54,0.54,0.58,87100.0,0.58
2020-06-25,0.59,0.54,0.56,0.56,70600.0,0.56
2020-06-26,0.58,0.54,0.55,0.56,84700.0,0.56
2020-06-29,0.59,0.53,0.57,0.56,142600.0,0.56
2020-06-30,0.61,0.53,0.54,0.57,160500.0,0.57
2020-07-01,0.64,0.55,0.57,0.59,105800.0,0.59
2020-07-02,0.62,0.58,0.59,0.6,114900.0,0.6
2020-07-06,0.73,0.6,0.63,0.62,558700.0,0.62
2020-07-07,0.66,0.58,0.66,0.6,173700.0,0.6
2020-07-08,0.64,0.6,0.64,0.63,140600.0,0.63
2020-07-09,0.65,0.58,0.6,0.6,123100.0,0.6
2020-07-10,0.63,0.56,0.56,0.6,77900.0,0.6
2020-07-13,0.61,0.59,0.59,0.6,92400.0,0.6
2020-07-14,0.6,0.58,0.59,0.59,102500.0,0.59
2020-07-15,0.61,0.58,0.61,0.59,67200.0,0.59
2020-07-16,0.61,0.59,0.6,0.6,46100.0,0.6
2020-07-17,0.6,0.56,0.6,0.58,111200.0,0.58
2020-07-20,0.61,0.56,0.61,0.58,77800.0,0.58
2020-07-21,0.6,0.56,0.6,0.57,214600.0,0.57
2020-07-22,0.66,0.6,0.63,0.61,599100.0,0.61
2020-07-23,0.64,0.58,0.62,0.6,172300.0,0.6
2020-07-24,0.6,0.57,0.6,0.59,114600.0,0.59
2020-07-27,0.6,0.57,0.6,0.58,186100.0,0.58
2020-07-28,0.6,0.57,0.57,0.59,123700.0,0.59
2020-07-29,0.6,0.58,0.59,0.59,113800.0,0.59
2020-07-30,0.59,0.56,0.59,0.57,120800.0,0.57
2020-07-31,0.6,0.57,0.57,0.58,91000.0,0.58
2020-08-03,0.58,0.56,0.57,0.57,96000.0,0.57
2020-08-04,0.62,0.56,0.58,0.6,330400.0,0.6
2020-08-05,0.62,0.59,0.59,0.6,190700.0,0.6
2020-08-06,0.61,0.6,0.61,0.61,116400.0,0.61
2020-08-07,0.6,0.57,0.59,0.6,79800.0,0.6
2020-08-10,0.64,0.57,0.6,0.62,122400.0,0.62
2020-08-11,0.63,0.58,0.62,0.61,108600.0,0.61
2020-08-12,0.61,0.58,0.61,0.6,259700.0,0.6
2020-08-13,0.6,0.58,0.6,0.6,82200.0,0.6
2020-08-14,0.6,0.58,0.6,0.59,82300.0,0.59
2020-08-17,0.61,0.59,0.59,0.6,188900.0,0.6
2020-08-18,0.61,0.59,0.6,0.6,41500.0,0.6
2020-08-19,0.6,0.56,0.6,0.6,277100.0,0.6
2020-08-20,0.59,0.54,0.59,0.57,134600.0,0.57
2020-08-21,0.57,0.53,0.56,0.57,314100.0,0.57
2020-08-24,0.57,0.52,0.56,0.52,140500.0,0.52
2020-08-25,0.57,0.52,0.52,0.55,89700.0,0.55
2020-08-26,0.58,0.53,0.58,0.55,241200.0,0.55
2020-08-27,0.58,0.53,0.58,0.55,249300.0,0.55
2020-08-28,0.56,0.53,0.54,0.55,72800.0,0.55
2020-08-31,0.56,0.53,0.55,0.55,52900.0,0.55
2020-09-01,0.55,0.53,0.55,0.54,117600.0,0.54
2020-09-02,0.55,0.53,0.53,0.53,145000.0,0.53
2020-09-03,0.54,0.51,0.53,0.51,129400.0,0.51
2020-09-04,0.54,0.49,0.52,0.5,191800.0,0.5
2020-09-08,0.5,0.45,0.5,0.48,252900.0,0.48
2020-09-09,0.49,0.45,0.49,0.47,95800.0,0.47
2020-09-10,0.47,0.45,0.46,0.45,159400.0,0.45
2020-09-11,0.47,0.43,0.45,0.45,117800.0,0.45
2020-09-14,0.47,0.44,0.45,0.46,96700.0,0.46
2020-09-15,0.5,0.46,0.46,0.46,122500.0,0.46
2020-09-16,0.5,0.44,0.46,0.45,110200.0,0.45
2020-09-17,0.48,0.43,0.45,0.44,344100.0,0.44
2020-09-18,0.45,0.4,0.45,0.42,385600.0,0.42
2020-09-21,0.42,0.39,0.39,0.41,127300.0,0.41
2020-09-22,0.42,0.39,0.42,0.4,162600.0,0.4
2020-09-23,0.42,0.38,0.41,0.41,633600.0,0.41
2020-09-24,0.41,0.39,0.41,0.4,98700.0,0.4
2020-09-25,0.41,0.39,0.4,0.4,200200.0,0.4
2020-09-28,0.41,0.38,0.4,0.38,120600.0,0.38
2020-09-29,0.42,0.38,0.38,0.41,305500.0,0.41
2020-09-30,0.42,0.38,0.38,0.41,187300.0,0.41
2020-10-01,0.41,0.38,0.41,0.4,124600.0,0.4
2020-10-02,0.4,0.38,0.38,0.4,158900.0,0.4
2020-10-05,0.41,0.39,0.4,0.4,131400.0,0.4
2020-10-06,0.42,0.39,0.4,0.4,248000.0,0.4
2020-10-07,0.41,0.39,0.4,0.41,129000.0,0.41
2020-10-08,0.58,0.4,0.42,0.52,1294100.0,0.52
2020-10-09,0.52,0.44,0.52,0.48,438100.0,0.48
2020-10-12,0.48,0.43,0.48,0.45,159800.0,0.45
2020-10-13,0.46,0.41,0.43,0.44,247600.0,0.44
2020-10-14,0.45,0.41,0.43,0.44,173700.0,0.44
2020-10-15,0.48,0.42,0.42,0.46,210700.0,0.46
2020-10-16,0.46,0.44,0.45,0.45,151800.0,0.45
2020-10-19,0.48,0.44,0.46,0.44,93900.0,0.44
2020-10-20,0.47,0.44,0.47,0.44,67200.0,0.44
2020-10-21,0.45,0.44,0.45,0.44,74700.0,0.44
2020-10-22,0.53,0.41,0.45,0.45,3116300.0,0.45
2020-10-23,0.5,0.41,0.48,0.42,1523200.0,0.42
2020-10-26,0.42,0.39,0.42,0.4,320500.0,0.4
2020-10-27,0.42,0.4,0.41,0.4,122300.0,0.4
2020-10-28,0.4,0.38,0.39,0.39,128100.0,0.39
2020-10-29,0.41,0.38,0.39,0.38,157500.0,0.38
2020-10-30,0.4,0.37,0.39,0.39,161800.0,0.39
2020-11-02,0.4,0.37,0.37,0.39,152600.0,0.39
2020-11-03,0.43,0.39,0.39,0.42,83200.0,0.42
2020-11-04,0.43,0.4,0.43,0.41,41900.0,0.41
2020-11-05,0.43,0.39,0.41,0.42,149500.0,0.42
2020-11-06,0.43,0.4,0.42,0.43,92100.0,0.43
2020-11-09,0.46,0.39,0.43,0.42,1091500.0,0.42
2020-11-10,0.43,0.41,0.42,0.43,270500.0,0.43
2020-11-11,0.44,0.42,0.44,0.44,445300.0,0.44
2020-11-12,0.44,0.42,0.44,0.43,65000.0,0.43
2020-11-13,0.44,0.41,0.43,0.43,154200.0,0.43
2020-11-16,0.46,0.42,0.43,0.44,386100.0,0.44
2020-11-17,0.44,0.41,0.43,0.42,304700.0,0.42
2020-11-18,0.46,0.42,0.42,0.45,347300.0,0.45
2020-11-19,0.46,0.45,0.45,0.46,268400.0,0.46
2020-11-20,0.48,0.46,0.47,0.47,145800.0,0.47
2020-11-23,0.48,0.45,0.47,0.48,206800.0,0.48
2020-11-24,0.53,0.48,0.5,0.49,806500.0,0.49
2020-11-25,0.53,0.5,0.5,0.53,737000.0,0.53
2020-11-27,0.54,0.51,0.54,0.53,321300.0,0.53
2020-11-30,0.53,0.5,0.51,0.51,175800.0,0.51
2020-12-01,0.53,0.49,0.53,0.5,167200.0,0.5
2020-12-02,0.55,0.49,0.5,0.51,371700.0,0.51
2020-12-03,1.02,0.5,0.51,0.64,21854500.0,0.64
2020-12-04,0.75,0.64,0.64,0.73,2558500.0,0.73
2020-12-07,0.85,0.7,0.79,0.83,2286000.0,0.83
2020-12-08,0.93,0.83,0.84,0.88,1018200.0,0.88
2020-12-09,0.95,0.88,0.95,0.94,797100.0,0.94
2020-12-10,1.02,0.94,0.94,1.02,817900.0,1.02
2020-12-11,1.05,0.92,1.04,0.93,839000.0,0.93
2020-12-14,1.05,0.91,0.99,0.93,721100.0,0.93
2020-12-15,1.03,0.93,1.0,0.95,284000.0,0.95
2020-12-16,0.98,0.92,0.94,0.92,184900.0,0.92
2020-12-17,0.98,0.92,0.95,0.95,264000.0,0.95
2020-12-18,0.97,0.9,0.97,0.9,511000.0,0.9
2020-12-21,0.9,0.81,0.89,0.83,634000.0,0.83
2020-12-22,0.9,0.83,0.83,0.88,264200.0,0.88
2020-12-23,0.96,0.87,0.88,0.95,201100.0,0.95
2020-12-24,1.02,0.94,0.95,1.01,150000.0,1.01
2020-12-28,1.01,0.92,1.01,0.95,241200.0,0.95
2020-12-29,0.98,0.89,0.98,0.9,181600.0,0.9
2020-12-30,0.95,0.85,0.85,0.87,544600.0,0.87
2020-12-31,0.98,0.92,0.96,0.96,399800.0,0.96
2021-01-04,0.96,0.88,0.95,0.91,306600.0,0.91
2021-01-05,0.97,0.88,0.88,0.95,393700.0,0.95
2021-01-06,1.05,0.94,0.96,0.99,507000.0,0.99
2021-01-07,1.04,0.94,0.99,1.0,314000.0,1.0
2021-01-08,1.15,0.99,1.01,1.14,1004400.0,1.14
2021-01-11,1.21,1.09,1.11,1.11,396800.0,1.11
2021-01-12,1.21,1.12,1.13,1.16,407500.0,1.16
2021-01-13,1.18,1.09,1.16,1.12,388100.0,1.12
2021-01-14,1.19,1.12,1.16,1.18,639600.0,1.18
2021-01-15,1.2,1.11,1.2,1.17,449000.0,1.17
2021-01-19,1.21,1.14,1.16,1.15,385000.0,1.15
2021-01-20,1.18,1.08,1.16,1.13,893900.0,1.13
2021-01-21,1.17,1.06,1.13,1.15,892700.0,1.15
2021-01-22,1.14,1.09,1.14,1.11,333600.0,1.11
2021-01-25,1.12,1.04,1.12,1.08,298200.0,1.08
2021-01-26,1.09,0.93,1.06,1.05,305400.0,1.05
2021-01-27,1.14,1.0,1.02,1.03,438500.0,1.03
2021-01-28,1.26,1.04,1.04,1.07,1005000.0,1.07
2021-01-29,1.11,1.02,1.07,1.04,702400.0,1.04
2021-02-01,1.11,1.05,1.05,1.1,236400.0,1.1
2021-02-02,1.16,1.07,1.07,1.13,468600.0,1.13
2021-02-03,1.25,1.11,1.16,1.22,1161100.0,1.22
2021-02-04,1.3,1.18,1.22,1.23,860500.0,1.23
2021-02-05,1.29,1.22,1.27,1.27,324100.0,1.27
2021-02-08,1.32,1.23,1.27,1.32,907700.0,1.32
2021-02-09,1.38,1.3,1.34,1.36,830800.0,1.36
2021-02-10,1.45,1.26,1.35,1.39,976500.0,1.39
2021-02-11,1.44,1.32,1.39,1.39,514200.0,1.39
2021-02-12,1.43,1.34,1.41,1.4,487600.0,1.4
2021-02-16,1.43,1.33,1.42,1.43,686900.0,1.43
2021-02-17,1.42,1.31,1.38,1.39,623600.0,1.39
2021-02-18,1.4,1.35,1.39,1.38,296100.0,1.38
2021-02-19,1.39,1.3,1.38,1.38,252300.0,1.38
2021-02-22,1.48,1.35,1.4,1.47,439300.0,1.47
2021-02-23,1.49,1.32,1.45,1.48,464300.0,1.48
2021-02-24,1.63,1.47,1.49,1.58,780700.0,1.58
2021-02-25,1.62,1.41,1.58,1.45,539200.0,1.45
2021-02-26,1.53,1.36,1.44,1.45,371600.0,1.45
2021-03-01,1.58,1.46,1.51,1.5,506400.0,1.5
2021-03-02,1.54,1.4,1.54,1.47,381600.0,1.47
2021-03-03,1.52,1.44,1.46,1.47,338900.0,1.47
2021-03-04,1.52,1.38,1.45,1.46,763400.0,1.46
2021-03-05,1.56,1.42,1.49,1.52,614300.0,1.52
2021-03-08,1.57,1.5,1.57,1.52,226600.0,1.52
2021-03-09,1.57,1.5,1.56,1.55,257200.0,1.55
2021-03-10,1.6,1.47,1.57,1.59,510800.0,1.59
2021-03-11,1.79,1.54,1.6,1.72,759200.0,1.72
2021-03-12,1.81,1.65,1.81,1.67,257300.0,1.67
2021-03-15,1.94,1.68,1.73,1.81,923800.0,1.81
2021-03-16,1.84,1.7,1.81,1.77,469600.0,1.77
2021-03-17,1.8,1.69,1.8,1.7,377200.0,1.7
2021-03-18,1.74,1.62,1.73,1.62,474400.0,1.62
2021-03-19,1.7,1.55,1.62,1.68,345300.0,1.68
2021-03-22,1.73,1.61,1.7,1.65,200500.0,1.65
2021-03-23,1.67,1.53,1.66,1.57,447800.0,1.57
2021-03-24,1.66,1.56,1.61,1.6,323000.0,1.6
2021-03-25,1.62,1.45,1.62,1.6,291300.0,1.6
2021-03-26,1.67,1.61,1.63,1.65,253900.0,1.65
2021-03-29,1.64,1.52,1.62,1.54,197300.0,1.54
2021-03-30,1.58,1.52,1.52,1.54,83300.0,1.54
2021-03-31,1.59,1.55,1.59,1.58,95600.0,1.58
2021-04-01,1.68,1.58,1.6,1.61,298700.0,1.61
2021-04-05,1.66,1.53,1.66,1.55,498800.0,1.55
2021-04-06,1.62,1.5,1.56,1.51,438200.0,1.51
2021-04-07,1.58,1.42,1.51,1.46,233300.0,1.46
2021-04-08,1.5,1.42,1.46,1.5,131500.0,1.5
2021-04-09,1.51,1.45,1.48,1.47,182900.0,1.47
2021-04-12,1.49,1.43,1.46,1.46,257500.0,1.46
2021-04-13,1.51,1.43,1.46,1.47,331500.0,1.47
2021-04-14,1.6,1.46,1.46,1.58,171900.0,1.58
2021-04-15,1.61,1.54,1.58,1.59,141200.0,1.59
2021-04-16,1.62,1.49,1.6,1.53,196400.0,1.53
2021-04-19,1.57,1.5,1.5,1.54,83700.0,1.54
2021-04-20,1.54,1.52,1.54,1.53,14537.0,1.53