File: us_tickers/TGA.csv
Date,High,Low,Open,Close,Volume,Adj Close,TP,CCI,20SMA,40SMA,50SMA,100SMA,60VMA
2018-01-02,1.48,1.44,1.47,1.46,54800.0,1.38098,1.46,,,,,,
2018-01-04,1.44,1.4,1.44,1.44,77800.0,1.36207,1.42667,,,,,,
2018-01-08,1.44,1.42,1.44,1.44,119300.0,1.36207,1.43333,-4.27355,,,,,
2018-01-10,1.46,1.42,1.42,1.45,94700.0,1.37153,1.44333,55.5556,,,,,
2018-01-12,1.49,1.45,1.49,1.47,138000.0,1.39044,1.47,75.4717,,,,,
2018-01-17,1.46,1.44,1.46,1.45,28300.0,1.37153,1.45,-61.4034,,,,,
2018-01-19,1.49,1.45,1.47,1.48,33400.0,1.3999,1.47333,86.4197,,,,,
2018-01-23,1.49,1.44,1.46,1.45,49000.0,1.37153,1.46,-40.2299,,,,,
2018-01-25,1.5,1.46,1.46,1.48,61000.0,1.3999,1.48,100,,,,,
2018-01-29,1.5,1.46,1.49,1.48,59400.0,1.3999,1.48,28.4553,,,,,
2018-01-31,1.48,1.38,1.4,1.47,118600.0,1.39044,1.44333,-52.6316,1.458,,,,
2018-02-02,1.47,1.4,1.44,1.44,65300.0,1.36207,1.43667,-42.328,1.459,,,,
2018-02-06,1.4,1.36,1.4,1.4,93400.0,1.32423,1.38667,-96.2199,1.4555,,,,
2018-02-08,1.38,1.29,1.37,1.3,124000.0,1.22964,1.32333,-160.194,1.444,,,,
2018-02-12,1.33,1.27,1.27,1.33,70300.0,1.25802,1.31,-45.4545,1.4265,,,,
2018-02-14,1.35,1.3,1.33,1.33,39400.0,1.25802,1.32667,60.3449,1.414,,,,
2018-02-16,1.35,1.3,1.3,1.32,39700.0,1.24856,1.32333,30.3031,1.3975,,,,
2018-02-21,1.34,1.28,1.33,1.28,69700.0,1.21073,1.3,-155.172,1.382,,,,
2018-02-23,1.32,1.28,1.29,1.32,9800.0,1.24856,1.30667,-39.2155,1.366,,,,
2018-02-27,1.35,1.27,1.31,1.27,92600.0,1.20127,1.29667,-77.2358,1.348,,,,
2018-03-01,1.34,1.28,1.34,1.29,14300.0,1.22018,1.30333,-22.7273,1.3345,1.39625,,,
2018-03-05,1.29,1.24,1.25,1.29,49800.0,1.22018,1.27333,-48.0227,1.3165,1.38775,,,
2018-03-07,1.32,1.27,1.3,1.28,64900.0,1.21073,1.29,44.2178,1.304,1.37975,,,
2018-03-09,1.31,1.28,1.3,1.29,69100.0,1.22018,1.29333,95.2379,1.299,1.3715,,,
2018-03-13,1.34,1.28,1.28,1.34,44200.0,1.26748,1.32,136.752,1.3015,1.364,,,
2018-03-15,1.35,1.31,1.33,1.35,19100.0,1.27694,1.33667,90.9089,1.3025,1.35825,1.377,,
2018-03-19,1.35,1.32,1.32,1.34,27700.0,1.26748,1.33667,70.1756,1.305,1.35125,1.3728,,
2018-03-21,1.41,1.34,1.34,1.41,41900.0,1.33369,1.38667,161.017,1.313,1.3475,1.3706,,
2018-03-23,1.46,1.42,1.46,1.45,33200.0,1.37153,1.44333,88.964,1.327,1.3465,1.3706,,
2018-03-27,1.39,1.34,1.38,1.35,49200.0,1.27694,1.36,-116.013,1.3335,1.34075,1.3664,,
2018-03-29,1.35,1.31,1.33,1.34,47800.0,1.26748,1.33333,-66.2393,1.337,1.33575,1.3614,,72028.3
2018-04-03,1.34,1.31,1.34,1.32,17400.0,1.24856,1.32333,-62.5,1.342,1.32925,1.3552,,69840.0
2018-04-05,1.33,1.25,1.31,1.26,273200.0,1.19181,1.28,-160.494,1.343,1.3235,1.3484,,70940.0
2018-04-09,1.33,1.25,1.29,1.27,134100.0,1.20127,1.28333,-47.2636,1.3425,1.32075,1.3408,,70648.3
2018-04-11,1.34,1.29,1.29,1.32,91800.0,1.24856,1.31667,115.385,1.341,1.32125,1.3338,,66366.7
2018-04-13,1.39,1.33,1.35,1.36,72500.0,1.2864,1.36,111.742,1.343,1.32275,1.331,,66746.7
2018-04-17,1.42,1.37,1.39,1.4,131000.0,1.32423,1.39667,100.358,1.3495,1.32725,1.329,,68090.0
2018-04-19,1.48,1.4,1.4,1.47,54600.0,1.39044,1.45,132.616,1.354,1.3335,1.33,,69866.7
2018-04-23,1.6,1.53,1.6,1.57,136600.0,1.48503,1.56667,83.3333,1.368,1.3475,1.3402,,72648.3
2018-04-25,1.66,1.55,1.57,1.63,88300.0,1.54178,1.61333,88.5416,1.3915,1.3625,1.3524,,76340.0
2018-04-27,1.75,1.63,1.74,1.65,241500.0,1.5607,1.67667,115.885,1.4225,1.37975,1.3648,,76453.3
2018-05-01,1.9,1.78,1.8,1.83,180500.0,1.73096,1.83667,119.83,1.472,1.407,1.385,,81813.3
2018-05-03,1.94,1.85,1.87,1.93,144600.0,1.82555,1.90667,85.1064,1.533,1.438,1.4088,,83891.7
2018-05-07,2.01,1.88,1.88,1.96,243600.0,1.85392,1.95,131.268,1.5965,1.4695,1.433,,85655.0
2018-05-09,2.14,2.02,2.02,2.12,620600.0,2.00526,2.09333,144.444,1.671,1.506,1.463,,98493.3
2018-05-11,2.01,1.78,2.01,1.91,377400.0,1.80663,1.9,-106.061,1.7305,1.53675,1.4894,,107527
2018-05-15,2.02,1.9,1.93,1.95,367500.0,1.84447,1.95667,-21.6285,1.784,1.56675,1.516,,116263
2018-05-17,2.1,2.03,2.05,2.04,664300.0,1.92959,2.05667,141.473,1.841,1.5975,1.5448,,130615.0
2018-05-21,2.84,2.35,2.38,2.64,1888900.0,2.49712,2.61,156.524,1.9255,1.64675,1.5908,,169473
2018-05-23,2.49,2.2,2.21,2.44,686800.0,2.30795,2.37667,21.3465,1.999,1.69525,1.6314,,204022
2018-05-25,2.3,2.12,2.3,2.27,518800.0,2.14715,2.23,-123.1,2.064,1.74325,1.6694,1.5232,217798
2018-05-30,2.49,2.26,2.28,2.49,483600.0,2.35524,2.41333,88.2353,2.1215,1.79675,1.7116,1.5422,228537
2018-06-01,2.58,2.43,2.56,2.47,415800.0,2.33632,2.49333,66.6667,2.182,1.8575,1.7564,1.5635,239695.0
2018-06-05,2.42,2.24,2.39,2.36,428600.0,2.23228,2.34,-126.058,2.229,1.91275,1.7938,1.5822,250205.0
2018-06-07,2.52,2.41,2.49,2.45,279100.0,2.3174,2.46,51.7242,2.269,1.97,1.8372,1.6018,257763
2018-06-11,2.42,2.3,2.39,2.37,482500.0,2.24173,2.36333,-64.9895,2.315,2.02275,1.8806,1.621,268278
2018-06-13,2.45,2.36,2.39,2.4,401700.0,2.27011,2.40333,-25.89,2.361,2.0725,1.9236,1.6394,278927
2018-06-15,2.3,2.24,2.3,2.24,431400.0,2.11877,2.26,-166.667,2.389,2.115,1.9632,1.6558,288688
2018-06-19,2.41,2.27,2.34,2.38,239500.0,2.25119,2.35333,22.152,2.381,2.15325,2.0062,1.6735,295957
2018-06-21,2.36,2.28,2.36,2.31,178400.0,2.18498,2.31667,-15.8731,2.3805,2.18975,2.0472,1.6905,301317
2018-06-25,2.43,2.32,2.36,2.4,165700.0,2.27011,2.38333,55.5556,2.391,2.2275,2.0886,1.7098,311430.0
2018-06-27,2.68,2.44,2.44,2.63,920900.0,2.48766,2.58333,154.626,2.4055,2.2635,2.134,1.7315,334618
2018-06-29,2.83,2.69,2.77,2.77,641600.0,2.62009,2.76333,88.9967,2.4295,2.30575,2.1866,1.7583,353793
2018-07-03,3.03,2.76,2.76,2.87,940600.0,2.71467,2.88667,139.606,2.471,2.35,2.235,1.7876,370985.0
2018-07-06,2.95,2.86,2.94,2.94,503500.0,2.78089,2.91667,76.0234,2.5175,2.39325,2.2876,1.82,389177
2018-07-10,3.48,3.32,3.33,3.41,1388600.0,3.22545,3.40333,122.269,2.611,2.463,2.356,1.8604,432488
2018-07-12,3.89,3.66,3.89,3.76,1408600.0,3.55651,3.77,93.7193,2.7475,2.55425,2.4338,1.9094,487022
2018-07-16,4.0,3.67,4.0,3.77,1696900.0,3.56597,3.81333,37.5874,2.9105,2.64975,2.5142,1.9615,541630.0
2018-07-18,3.65,3.37,3.52,3.59,999100.0,3.39571,3.53667,-97.8121,3.031,2.706,2.58,2.0065,570410.0
2018-07-20,3.61,3.39,3.6,3.43,600000.0,3.24437,3.47667,-101.852,3.149,2.76475,2.6384,2.0507,586987
2018-07-24,3.53,3.37,3.37,3.37,685000.0,3.18761,3.42333,-74.83,3.249,2.82,2.696,2.0927,599713
2018-07-26,3.4,3.28,3.33,3.35,318300.0,3.1687,3.34333,-114.942,3.3315,2.8685,2.753,2.1345,603623
2018-07-30,3.23,3.11,3.18,3.13,359500.0,2.9606,3.15667,-108.844,3.3725,2.901,2.7992,2.172,613220.0
2018-08-01,3.3,3.13,3.24,3.24,330400.0,3.06465,3.22333,-11.9047,3.4165,2.94375,2.8314,2.2111,618993
2018-08-03,3.27,3.16,3.17,3.22,581300.0,3.04573,3.21667,58.9432,3.4435,2.9805,2.8654,2.2484,617417
2018-08-07,3.28,3.1,3.1,3.19,304700.0,3.01736,3.19,-10.4167,3.4225,3.01675,2.8994,2.2844,618628
2018-08-09,3.24,3.13,3.21,3.21,209200.0,3.03627,3.19333,8.47475,3.3675,3.0575,2.9322,2.3219,618818
2018-08-13,3.22,3.02,3.22,3.06,533600.0,2.89439,3.1,-166.667,3.289,3.09975,2.957,2.3567,617782
2018-08-15,3.12,2.83,3.11,2.93,731000.0,2.77143,2.96,-143.265,3.2365,3.13375,2.983,2.3884,631017
2018-08-17,3.22,3.07,3.09,3.12,647200.0,2.95114,3.13667,48.5611,3.1945,3.17175,3.0086,2.4229,614613
2018-08-21,3.58,3.31,3.38,3.47,575500.0,3.2822,3.45333,122.777,3.195,3.222,3.048,2.4643,616430.0
2018-08-23,3.5,3.25,3.5,3.42,553800.0,3.23491,3.39,23.7003,3.2035,3.2675,3.09,2.5068,620660.0
2018-08-27,3.53,3.42,3.49,3.47,231800.0,3.2822,3.47333,20,3.236,3.30425,3.138,2.5506,616377
2018-08-29,3.5,3.42,3.44,3.46,149800.0,3.27274,3.46,4.902,3.2565,3.3365,3.1816,2.5939,609300.0
2018-08-31,3.39,3.31,3.36,3.36,143000.0,3.21063,3.35333,-166.667,3.275,3.35925,3.2232,2.6352,607783
2018-09-05,3.37,3.19,3.3,3.3,448500.0,3.1533,3.28667,-89.8491,3.292,3.35725,3.2598,2.6742,607742
2018-09-07,3.24,3.16,3.19,3.21,119200.0,3.0673,3.20333,-124.486,3.2935,3.3305,3.2874,2.7107,602373
2018-09-11,3.81,3.52,3.6,3.74,805200.0,3.57374,3.69,144.586,3.3435,3.31625,3.3226,2.7546,620203
2018-09-13,3.7,3.54,3.56,3.57,237800.0,3.4113,3.60333,36.0065,3.4,3.31825,3.3546,2.7948,622235.0
2018-09-17,3.65,3.53,3.61,3.55,185700.0,3.39219,3.57667,-88.5781,3.4495,3.322,3.3814,2.8345,622397
2018-09-19,3.41,3.35,3.4,3.39,184100.0,3.2393,3.38333,-109.213,3.4485,3.32175,3.383,2.8695,619987
2018-09-21,3.36,3.23,3.31,3.32,286300.0,3.17241,3.30333,-80.7292,3.4355,3.3195,3.3652,2.8995,606823
2018-09-25,3.7,3.41,3.51,3.44,703300.0,3.28708,3.51667,141.304,3.4315,3.33375,3.3464,2.9303,602307
2018-09-27,3.35,3.28,3.35,3.3,413900.0,3.1533,3.31,-73.7705,3.419,3.33775,3.3368,2.9584,595952
2018-10-01,3.57,3.35,3.35,3.52,466200.0,3.36352,3.48,66.9056,3.4245,3.34975,3.3334,2.9859,595018
2018-10-03,3.51,3.36,3.48,3.45,776300.0,3.29663,3.44,24.9344,3.4395,3.36575,3.336,3.016,569817
2018-10-05,3.36,3.11,3.31,3.32,1167900.0,3.17241,3.26333,-123.563,3.449,3.37125,3.3344,3.0437,543225.0
2018-10-09,3.41,3.14,3.21,3.35,157100.0,3.20108,3.3,-23.088,3.418,3.38075,3.3408,3.07,492897
2018-10-11,3.21,2.99,3.14,3.0,497800.0,2.86664,3.06667,-166.667,3.367,3.3835,3.3348,3.0831,473423
2018-10-15,3.15,3.0,3.1,3.02,372100.0,2.88575,3.05667,-70.0483,3.314,3.38175,3.3296,3.0975,463740.0
2018-10-17,3.13,3.01,3.11,3.09,230100.0,2.95264,3.07667,-6.53595,3.285,3.36675,3.328,3.1137,455060.0
2018-10-19,3.1,2.97,3.04,2.99,229600.0,2.85708,3.02,-79.0378,3.254,3.34475,3.3198,3.126,458828
2018-10-23,2.6,2.02,2.52,2.03,2656500.0,1.93976,2.21667,-143.55,3.141,3.28625,3.2872,3.1221,509582
2018-10-25,2.5,2.27,2.38,2.45,526100.0,2.34109,2.40667,-29.6333,3.0485,3.23375,3.2616,3.1223,524303
2018-10-29,2.49,2.27,2.46,2.31,321100.0,2.20731,2.35667,13.7395,2.9435,3.184,3.233,3.1208,522010.0
2018-10-31,2.42,2.3,2.33,2.31,209200.0,2.20731,2.34333,-32.4074,2.8285,3.134,3.1894,3.1187,522198
2018-11-02,2.48,2.31,2.46,2.36,218000.0,2.25509,2.38333,57.7427,2.738,3.0935,3.1482,3.1191,519433
2018-11-06,2.42,2.32,2.38,2.39,181300.0,2.28375,2.37667,7.81267,2.6445,3.03125,3.1042,3.1211,511012
2018-11-08,2.37,2.14,2.3,2.22,358600.0,2.12131,2.24333,-166.667,2.567,2.967,3.059,3.1203,465417
2018-11-12,2.2,2.05,2.16,2.11,279500.0,2.0162,2.12,-87.7617,2.475,2.8945,3.0096,3.1164,451987
2018-11-14,2.42,2.12,2.41,2.15,243400.0,2.05442,2.23,21.309,2.3915,2.83825,2.9678,3.1138,447510.0
2018-11-16,2.26,2.12,2.22,2.25,139400.0,2.14998,2.21,4.38592,2.313,2.7835,2.9276,3.1075,434175.0
2018-11-20,2.3,2.08,2.26,2.14,271700.0,2.04487,2.17333,-69.9234,2.305,2.723,2.8718,3.0972,435960.0
2018-11-23,2.17,2.1,2.16,2.13,43000.0,2.03531,2.13333,-104.396,2.283,2.66575,2.8148,3.0847,431480.0
2018-11-27,2.17,1.97,2.14,2.01,248100.0,1.92065,2.05,-147.239,2.254,2.59875,2.7548,3.0681,432442
2018-11-29,2.19,2.0,2.08,2.17,175700.0,2.07353,2.12,25.8467,2.234,2.53125,2.7036,3.0433,427303
2018-12-03,2.23,2.15,2.17,2.18,139500.0,2.08309,2.18667,101.161,2.2095,2.47375,2.6578,3.0115,425757
2018-12-06,2.15,1.92,2.11,1.96,267500.0,1.87287,2.01,-166.667,2.176,2.41025,2.602,2.9742,403387
2018-12-10,1.98,1.8,1.98,1.81,350900.0,1.72954,1.86333,-123.849,2.135,2.351,2.5454,2.9411,401682
2018-12-12,1.95,1.87,1.92,1.88,219900.0,1.79643,1.9,-34.4585,2.11,2.2925,2.4838,2.9086,400578
2018-12-14,1.88,1.77,1.85,1.78,77100.0,1.70087,1.81,-164.634,2.0655,2.2285,2.4182,2.8771,395153
2018-12-18,1.78,1.7,1.78,1.71,187600.0,1.63398,1.73,-113.367,2.0175,2.16525,2.355,2.8447,393183
2018-12-20,1.66,1.55,1.66,1.62,302600.0,1.54798,1.61,-122.845,1.9585,2.13175,2.288,2.8144,381865.0
2018-12-24,1.57,1.5,1.55,1.52,131900.0,1.45243,1.53,-105.413,1.896,2.0895,2.2264,2.7806,373972
2018-12-27,1.68,1.58,1.62,1.68,116300.0,1.60532,1.64667,113.636,1.854,2.054,2.1708,2.7502,357798
2018-12-31,1.88,1.69,1.7,1.87,240200.0,1.78687,1.81333,141.998,1.821,2.0275,2.118,2.723,343268
2019-01-03,1.89,1.76,1.85,1.89,73200.0,1.80598,1.84667,67.5526,1.7885,1.999,2.0716,2.6957,318182
2019-01-07,2.13,1.93,1.93,2.07,182600.0,1.97798,2.04333,136.364,1.7845,1.98025,2.0594,2.6733,316398
2019-01-09,2.11,2.03,2.06,2.09,135900.0,1.99709,2.07667,76.0626,1.8005,1.96775,2.0462,2.6539,305857
2019-01-11,2.03,1.97,2.03,1.98,36200.0,1.89198,1.99333,-146.119,1.812,1.961,2.0312,2.6321,294352
2019-01-15,2.01,1.94,1.96,1.96,55200.0,1.87287,1.97,-55.5555,1.825,1.94525,2.0168,2.6031,287138
2019-01-17,1.96,1.9,1.92,1.94,40400.0,1.85376,1.93333,-102.564,1.845,1.93125,1.9978,2.573,274082
2019-01-22,1.89,1.75,1.8,1.76,97100.0,1.68176,1.8,-141.026,1.8635,1.911,1.9756,2.5399,212727
2019-01-24,1.86,1.76,1.76,1.79,96800.0,1.71043,1.80333,-45.0237,1.8855,1.89075,1.9538,2.5064,188668
2019-01-28,1.85,1.77,1.84,1.79,16800.0,1.71043,1.80333,-6.94448,1.901,1.8775,1.9412,2.4754,178133
2019-01-30,1.85,1.72,1.72,1.83,167500.0,1.74865,1.8,9.80401,1.901,1.861,1.9218,2.4448,172782
2019-02-01,1.99,1.82,1.82,1.93,101700.0,1.8442,1.91333,147.239,1.9035,1.846,1.9078,2.4177,168245.0
2019-02-05,1.94,1.88,1.93,1.92,42500.0,1.83465,1.91333,55.5556,1.8955,1.84,1.8956,2.3837,162908
2019-02-07,1.94,1.83,1.93,1.87,23400.0,1.78687,1.88,-166.667,1.879,1.83975,1.8846,2.3497,156055.0
2019-02-11,1.86,1.8,1.83,1.85,50600.0,1.76776,1.83667,-97.3452,1.863,1.8375,1.8748,2.3148,150497
2019-02-13,2.0,1.93,1.93,1.98,90000.0,1.89198,1.97,153.285,1.8625,1.84375,1.8682,2.2859,140150.0
2019-02-15,2.12,2.03,2.03,2.09,135300.0,1.99709,2.08,110.71,1.8735,1.85925,1.8634,2.2606,140187
2019-02-20,2.19,1.97,2.14,2.01,96700.0,1.92065,2.05667,14.2858,1.8975,1.8805,1.8642,2.2331,134718
2019-02-22,2.1,2.02,2.03,2.07,78900.0,1.97798,2.06333,-20.8334,1.925,1.90525,1.8698,2.2076,134843
2019-02-26,2.06,1.96,2.03,1.98,70000.0,1.89198,2.0,-141.204,1.9435,1.92225,1.8746,2.1792,128348
2019-02-28,2.05,1.98,2.03,1.98,72500.0,1.89198,2.00333,-68.1818,1.9655,1.93325,1.8818,2.15,123973
2019-03-04,2.04,1.98,2.0,1.98,74400.0,1.89198,2.0,-41.6667,1.9765,1.94,1.8914,2.1232,122290.0
2019-03-06,2.2,2.02,2.04,2.04,130700.0,1.94931,2.08667,101.449,1.989,1.94225,1.9078,2.0979,118768
2019-03-08,2.06,1.98,2.02,2.02,59000.0,1.9302,2.02,-50.3145,2.002,1.9405,1.927,2.0767,111953
2019-03-12,2.16,2.06,2.07,2.11,143000.0,2.0162,2.11,96.2643,2.0265,1.94475,1.9438,2.0573,109758
2019-03-14,2.19,2.03,2.1,2.08,106100.0,1.98753,2.1,47.1381,2.04,1.95125,1.9558,2.0369,109360.0
2019-03-18,2.19,2.07,2.07,2.17,131100.0,2.07353,2.14333,136.752,2.045,1.95925,1.966,2.0188,106172
2019-03-20,2.18,2.12,2.18,2.14,155900.0,2.04487,2.14667,53.4351,2.0525,1.975,1.9714,2.0154,101877
2019-03-22,2.09,1.97,2.09,1.98,270000.0,1.89198,2.01333,-165.57,2.0515,1.98825,1.9702,2.0082,101965.0
2019-03-26,1.9,1.72,1.87,1.75,448300.0,1.6722,1.79,-109.89,2.031,1.98725,1.9622,1.9967,110712
2019-03-28,1.87,1.81,1.81,1.85,138200.0,1.80204,1.84333,-27.7778,2.0155,1.9905,1.958,1.9874,108488
2019-04-01,1.94,1.82,1.93,1.86,216800.0,1.81178,1.87333,56.8783,2.005,1.99075,1.9554,1.9766,107743
2019-04-03,1.87,1.79,1.87,1.8,76700.0,1.75333,1.82,-116.105,1.983,1.986,1.9556,1.9656,104932
2019-04-05,1.86,1.77,1.79,1.84,88400.0,1.7923,1.82333,-31.746,1.9615,1.98175,1.9574,1.9556,103795.0
2019-04-09,1.89,1.85,1.86,1.86,56600.0,1.81178,1.86667,67.9013,1.9395,1.983,1.9592,1.9502,105022
2019-04-11,1.97,1.86,1.88,1.88,88100.0,1.83126,1.90333,80.5244,1.92,1.98,1.9634,1.9426,106440.0
2019-04-15,1.88,1.83,1.88,1.86,132000.0,1.81178,1.85667,-100.939,1.897,1.971,1.9634,1.9356,109095.0
2019-04-17,1.87,1.83,1.83,1.86,58400.0,1.81178,1.85333,-69.6202,1.869,1.96075,1.9608,1.9282,106808
2019-04-22,2.01,1.9,1.9,1.95,134900.0,1.89944,1.95333,166.667,1.857,1.95425,1.9614,1.923,107137
2019-04-24,1.97,1.89,1.95,1.92,158900.0,1.87022,1.92667,37.037,1.867,1.949,1.9638,1.9193,114262
2019-04-26,1.92,1.85,1.92,1.9,97100.0,1.85074,1.89,-166.667,1.874,1.94475,1.9626,1.9154,109928
2019-04-30,1.97,1.92,1.95,1.95,58200.0,1.89944,1.94667,122.449,1.8815,1.94325,1.9586,1.911,108590.0
2019-05-02,1.91,1.87,1.91,1.89,34600.0,1.841,1.89,-83.3333,1.889,1.936,1.9522,1.9082,108680.0
2019-05-06,1.88,1.85,1.88,1.87,148500.0,1.82152,1.86667,-78.0781,1.895,1.92825,1.9454,1.9076,112800.0
2019-05-08,1.86,1.82,1.82,1.82,60700.0,1.77281,1.83333,-78.1892,1.891,1.91525,1.9382,1.9064,113530.0
2019-05-10,1.83,1.78,1.8,1.78,103500.0,1.73385,1.79667,-106.481,1.882,1.901,1.93,1.9059,113640.0
2019-05-14,1.81,1.76,1.78,1.76,155500.0,1.71437,1.77667,-75.1174,1.8715,1.88425,1.9214,1.9064,113725.0
2019-05-16,1.79,1.75,1.76,1.76,70200.0,1.71437,1.76667,-48.2456,1.861,1.865,1.9096,1.9087,113297
2019-05-20,1.73,1.68,1.72,1.7,189300.0,1.65593,1.70333,-139.918,1.841,1.849,1.897,1.912,114213
2019-05-22,1.69,1.6,1.66,1.6,102400.0,1.55852,1.63,-127.854,1.814,1.8405,1.8788,1.9113,115842
2019-05-24,1.59,1.49,1.52,1.51,135500.0,1.47085,1.53,-88.3941,1.774,1.824,1.8562,1.906,118852
2019-05-29,1.56,1.5,1.52,1.51,98100.0,1.47085,1.52333,-53.719,1.73,1.80575,1.8326,1.8993,119585.0
2019-05-31,1.52,1.44,1.49,1.5,105100.0,1.46111,1.48667,-166.667,1.6895,1.78925,1.807,1.8892,119673
2019-06-04,1.55,1.49,1.53,1.54,64800.0,1.50007,1.52667,49.6453,1.6555,1.77525,1.787,1.8786,120792
2019-06-06,1.54,1.51,1.53,1.51,68000.0,1.47085,1.52,10.6383,1.6245,1.75775,1.7756,1.8689,120280.0
2019-06-10,1.56,1.47,1.54,1.49,195500.0,1.45137,1.50667,-142.857,1.597,1.7395,1.7626,1.8603,121565.0
2019-06-12,1.5,1.4,1.47,1.42,141900.0,1.38319,1.44,-119.253,1.565,1.71825,1.7454,1.8504,120682
2019-06-14,1.47,1.38,1.47,1.4,122100.0,1.3637,1.41667,-114.695,1.5325,1.69675,1.7294,1.8425,119600.0
2019-06-18,1.46,1.41,1.43,1.45,59300.0,1.41241,1.44,29.1006,1.504,1.6725,1.714,1.8357,114967
2019-06-20,1.47,1.41,1.42,1.45,250900.0,1.41241,1.44333,92.1986,1.483,1.6485,1.6962,1.8277,108790.0
2019-06-24,1.43,1.38,1.43,1.39,102000.0,1.35396,1.4,-129.252,1.4715,1.62275,1.6768,1.8201,112437
2019-06-26,1.45,1.37,1.41,1.42,220000.0,1.38319,1.41333,-10.204,1.4615,1.59575,1.6584,1.8109,114657
2019-06-28,1.42,1.39,1.42,1.39,56200.0,1.35396,1.4,-55.5556,1.452,1.57075,1.6402,1.8005,113415.0
2019-07-02,1.44,1.35,1.44,1.36,85300.0,1.32474,1.38333,-142.857,1.4365,1.546,1.6188,1.7901,113288
2019-07-05,1.37,1.34,1.37,1.35,61800.0,1.315,1.35333,-100.939,1.42,1.52225,1.5968,1.7803,112283
2019-07-09,1.38,1.34,1.35,1.37,101700.0,1.33448,1.36333,-18.5186,1.404,1.5005,1.5746,1.7686,115108
2019-07-11,1.5,1.45,1.5,1.47,167500.0,1.43189,1.47333,116.162,1.4055,1.48525,1.555,1.7568,120305.0
2019-07-15,1.5,1.46,1.47,1.48,75300.0,1.44163,1.48,67.6328,1.41,1.47125,1.5378,1.745,121133
2019-07-17,1.47,1.43,1.47,1.43,175400.0,1.39293,1.44333,-166.667,1.4115,1.45775,1.5206,1.733,121577
2019-07-19,1.46,1.42,1.43,1.45,102600.0,1.41241,1.44333,-46.448,1.413,1.448,1.505,1.7216,116840.0
2019-07-23,1.46,1.43,1.45,1.45,20800.0,1.41241,1.44667,95.2382,1.417,1.44425,1.4908,1.7104,116645.0
2019-07-25,1.47,1.41,1.47,1.41,44800.0,1.37344,1.43,-111.111,1.419,1.44025,1.4774,1.6994,116288
2019-07-29,1.43,1.38,1.38,1.4,121600.0,1.3637,1.40333,-56.7376,1.4175,1.43475,1.4628,1.6862,118520.0
2019-07-31,1.55,1.47,1.49,1.55,195400.0,1.50981,1.52333,154.762,1.431,1.43375,1.4548,1.6759,119560.0
2019-08-02,1.55,1.45,1.52,1.46,98200.0,1.42215,1.48667,10.9127,1.445,1.4325,1.4492,1.664,121470.0
2019-08-06,1.46,1.42,1.45,1.43,201500.0,1.39293,1.43667,-92.5926,1.4535,1.42875,1.4464,1.6513,124387
2019-08-08,1.46,1.41,1.43,1.44,134600.0,1.40267,1.43667,-41.6666,1.4515,1.4285,1.4436,1.6381,124463
2019-08-12,1.48,1.4,1.42,1.48,124200.0,1.44163,1.45333,129.63,1.4495,1.42975,1.4418,1.6244,122617
2019-08-14,1.52,1.42,1.52,1.43,146100.0,1.39293,1.45667,-11.1112,1.4525,1.432,1.4394,1.6132,124830.0
2019-08-16,1.49,1.4,1.45,1.47,107700.0,1.43189,1.45333,-24.7748,1.454,1.4335,1.4368,1.6062,125447
2019-08-20,1.46,1.4,1.45,1.42,52300.0,1.38319,1.42667,-92.1987,1.4535,1.43525,1.4334,1.598,124048
2019-08-22,1.45,1.42,1.45,1.43,38000.0,1.39293,1.43333,-60.1852,1.454,1.4365,1.433,1.5892,121470.0
2019-08-26,1.38,1.32,1.37,1.33,114800.0,1.29552,1.34333,-110.706,1.449,1.43325,1.4294,1.5794,123017
2019-08-28,1.36,1.34,1.34,1.35,99900.0,1.315,1.35,-35.7143,1.4315,1.43125,1.4258,1.5699,123413
2019-08-30,1.37,1.31,1.35,1.33,107800.0,1.33,1.33667,-41.6667,1.416,1.4305,1.4224,1.5593,124667
2019-09-04,1.37,1.33,1.35,1.35,261900.0,1.35,1.35,78.7038,1.4055,1.4295,1.42,1.5484,125845.0
2019-09-06,1.43,1.35,1.37,1.4,68300.0,1.4,1.39333,154.762,1.4,1.42575,1.419,1.5387,123463
2019-09-10,1.5,1.44,1.46,1.49,260700.0,1.49,1.47667,110.778,1.4015,1.4255,1.4216,1.5309,127282
2019-09-12,1.49,1.41,1.49,1.43,225100.0,1.43,1.44333,-12.8206,1.3995,1.426,1.4246,1.5217,131640.0
2019-09-16,1.6,1.49,1.5,1.52,382500.0,1.52,1.53667,125,1.4005,1.42725,1.429,1.5129,134285.0
2019-09-18,1.5,1.43,1.46,1.44,274600.0,1.44,1.45667,-17.2414,1.402,1.42775,1.4326,1.5036,133797
2019-09-20,1.48,1.4,1.48,1.43,216400.0,1.43,1.43667,-96.4913,1.4035,1.42875,1.4322,1.4936,131463
2019-09-24,1.43,1.38,1.41,1.39,107400.0,1.39,1.4,-122.222,1.4095,1.42925,1.4292,1.4835,134950.0
2019-09-26,1.37,1.34,1.37,1.36,169800.0,1.36,1.35667,-109.375,1.412,1.42175,1.426,1.4733,137080.0
2019-09-30,1.35,1.31,1.33,1.33,110100.0,1.33,1.33,-88.2354,1.411,1.4135,1.4216,1.4633,140143
2019-10-02,1.32,1.26,1.31,1.28,233300.0,1.28,1.28667,-153.846,1.407,1.40625,1.416,1.4534,141408
2019-10-04,1.31,1.28,1.28,1.31,28900.0,1.31,1.3,-9.25938,1.398,1.399,1.4106,1.444,134183
2019-10-08,1.35,1.29,1.35,1.31,91700.0,1.31,1.31667,74.7126,1.3825,1.392,1.4076,1.4352,133332
2019-10-10,1.31,1.25,1.31,1.27,240400.0,1.27,1.27667,-145.39,1.3655,1.3825,1.3984,1.4266,135032
2019-10-14,1.3,1.28,1.29,1.3,35700.0,1.3,1.29333,-23.2559,1.3485,1.3745,1.3904,1.4198,137045.0
2019-10-16,1.32,1.26,1.29,1.26,62500.0,1.26,1.28,-69.8923,1.331,1.3665,1.3836,1.415,136760.0
2019-10-18,1.29,1.24,1.27,1.25,110800.0,1.25,1.26,-91.195,1.312,1.35775,1.3764,1.41,139010.0
2019-10-22,1.27,1.23,1.25,1.24,137000.0,1.24,1.24667,-106.061,1.2965,1.353,1.368,1.4049,138583
2019-10-24,1.27,1.22,1.24,1.23,123700.0,1.23,1.24,-76.9231,1.283,1.3475,1.3582,1.3988,136623
2019-10-28,1.22,1.19,1.2,1.2,139000.0,1.2,1.20333,-131.41,1.2705,1.34075,1.3482,1.3925,137233
2019-10-30,1.19,1.16,1.18,1.17,80600.0,1.17,1.17333,-106.061,1.2585,1.33275,1.338,1.3857,137142
2019-11-01,1.22,1.15,1.16,1.17,158300.0,1.17,1.18,-7.24644,1.2455,1.32175,1.3272,1.3801,137145.0
2019-11-05,1.28,1.23,1.24,1.26,110900.0,1.26,1.25667,121.212,1.239,1.31075,1.3236,1.3765,141003
2019-11-07,1.25,1.23,1.23,1.24,73200.0,1.24,1.24,41.6667,1.234,1.29975,1.3194,1.3726,137132
2019-11-11,1.23,1.2,1.22,1.22,76700.0,1.22,1.21667,-102.273,1.227,1.28775,1.3148,1.3686,135337
2019-11-13,1.18,1.16,1.18,1.17,52400.0,1.17,1.17,-119.342,1.217,1.274,1.3082,1.3641,135457
2019-11-15,1.19,1.17,1.17,1.18,123400.0,1.18,1.18,-39.2157,1.2085,1.26025,1.2998,1.3594,137090.0
2019-11-19,1.15,1.11,1.11,1.12,259800.0,1.12,1.12667,-118.056,1.1965,1.2465,1.286,1.3538,141602
2019-11-21,1.17,1.14,1.15,1.14,103500.0,1.14,1.15,15.1514,1.1875,1.23525,1.2734,1.349,144050.0
2019-11-25,1.16,1.11,1.15,1.14,199300.0,1.14,1.13667,-10.7527,1.181,1.22575,1.2604,1.3447,144982
2019-11-27,1.17,1.14,1.16,1.14,77100.0,1.14,1.15,39.2157,1.178,1.21825,1.2484,1.3405,142448
2019-12-02,1.17,1.07,1.11,1.12,163700.0,1.12,1.12,-119.658,1.174,1.20975,1.2354,1.3338,147525.0
2019-12-04,1.15,1.11,1.13,1.14,220900.0,1.14,1.13333,5.95238,1.1625,1.20075,1.2248,1.327,145152
2019-12-06,1.2,1.15,1.16,1.19,155700.0,1.19,1.18,146.465,1.1555,1.19475,1.2168,1.3214,144310.0
2019-12-10,1.2,1.16,1.19,1.19,99400.0,1.19,1.18333,52.0834,1.1515,1.18925,1.211,1.3163,140488
2019-12-12,1.23,1.17,1.19,1.23,179300.0,1.23,1.21,161.459,1.155,1.186,1.2074,1.3117,137792
2019-12-16,1.32,1.26,1.27,1.28,179400.0,1.28,1.28667,99.7807,1.165,1.18675,1.2066,1.3086,138950.0
2019-12-18,1.32,1.24,1.28,1.3,115400.0,1.3,1.28667,72.9167,1.18,1.18825,1.205,1.3063,139535.0
2019-12-20,1.46,1.36,1.36,1.45,409800.0,1.45,1.42333,117.552,1.208,1.19775,1.2104,1.3044,147627
2019-12-24,1.49,1.45,1.49,1.45,55100.0,1.45,1.46333,59.0278,1.2405,1.21075,1.2172,1.3038,147985.0
2019-12-27,1.47,1.43,1.43,1.43,134400.0,1.43,1.44333,-30.3031,1.269,1.2235,1.2236,1.3036,144598
2019-12-31,1.57,1.36,1.48,1.38,723900.0,1.38,1.43667,-74.074,1.2995,1.23675,1.2304,1.3034,157058
2020-01-03,1.5,1.42,1.49,1.45,257400.0,1.45,1.45667,52.8455,1.3315,1.247,1.2388,1.3034,161360.0
2020-01-07,1.42,1.39,1.4,1.4,105000.0,1.4,1.40333,-140.523,1.356,1.25575,1.246,1.3021,160987
2020-01-09,1.4,1.26,1.33,1.39,299500.0,1.39,1.35,-99.7376,1.374,1.26275,1.2524,1.3003,163983
2020-01-13,1.44,1.32,1.42,1.43,151600.0,1.43,1.39667,51.6433,1.395,1.275,1.262,1.3,165930.0
2020-01-15,1.4,1.34,1.4,1.36,78500.0,1.36,1.36667,-53.1401,1.4045,1.28475,1.2702,1.2987,165285.0
2020-01-17,1.41,1.34,1.39,1.39,166600.0,1.39,1.38,-14.1845,1.4155,1.29775,1.2756,1.2996,166187
2020-01-22,1.37,1.33,1.36,1.36,83400.0,1.36,1.35333,-96.7742,1.4085,1.30825,1.2802,1.2998,165225.0
2020-01-24,1.36,1.26,1.29,1.27,123900.0,1.27,1.29667,-112.795,1.391,1.31575,1.2828,1.2988,165047
2020-01-28,1.28,1.22,1.23,1.26,79200.0,1.26,1.25333,-61.1111,1.3715,1.32025,1.2854,1.2968,164390.0
2020-01-30,1.32,1.2,1.2,1.3,164600.0,1.3,1.27333,45.4546,1.3555,1.3275,1.2892,1.2945,163753
2020-02-03,1.28,1.22,1.28,1.25,79300.0,1.25,1.25,-55.5556,1.3365,1.334,1.2948,1.2904,160388
2020-02-05,1.33,1.27,1.3,1.28,159100.0,1.28,1.29333,104.575,1.324,1.34,1.3006,1.287,161482
2020-02-07,1.3,1.24,1.3,1.28,78300.0,1.28,1.27333,-18.5186,1.3165,1.34525,1.3066,1.2835,160943
2020-02-11,1.26,1.23,1.26,1.23,64500.0,1.23,1.24,-125,1.2985,1.34675,1.3102,1.2793,159590.0
2020-02-13,1.27,1.21,1.27,1.23,41300.0,1.23,1.23667,-87.1212,1.285,1.34475,1.3146,1.275,160057
2020-02-18,1.25,1.19,1.2,1.2,105200.0,1.2,1.21333,-91.8367,1.2665,1.341,1.3172,1.271,158593
2020-02-20,1.24,1.2,1.22,1.22,88600.0,1.22,1.22,-6.94444,1.2535,1.331,1.3194,1.2681,156790.0
2020-02-24,1.23,1.17,1.18,1.21,87700.0,1.21,1.20333,-149.123,1.246,1.3185,1.3206,1.2658,153852
2020-02-26,1.21,1.05,1.17,1.14,173100.0,1.14,1.13333,-157.895,1.238,1.30475,1.3186,1.263,156232
2020-02-28,1.09,1.01,1.01,1.09,307200.0,1.09,1.06333,-93.9716,1.2195,1.2875,1.311,1.2588,160817
2020-03-03,1.15,1.07,1.11,1.11,64500.0,1.11,1.11,44.4445,1.2035,1.27,1.3042,1.2546,158900.0
2020-03-05,1.1,1.06,1.07,1.08,81800.0,1.08,1.08,-44.0252,1.1835,1.25375,1.2908,1.2506,155592
2020-03-09,0.8,0.64,0.8,0.69,884200.0,0.69,0.71,-165.52,1.1375,1.227,1.2654,1.2413,170912
2020-03-11,0.79,0.61,0.79,0.64,203900.0,0.64,0.68,-72.4638,1.085,1.19175,1.2366,1.2301,173260.0
2020-03-13,0.58,0.46,0.58,0.48,443700.0,0.48,0.506667,-99.1254,1.0135,1.14925,1.2002,1.2153,182053
2020-03-17,0.51,0.41,0.51,0.46,52300.0,0.46,0.46,-72.2892,0.942,1.10425,1.1614,1.2001,180182
2020-03-19,0.45,0.32,0.45,0.38,206300.0,0.38,0.383333,-85.8586,0.8585,1.056,1.1204,1.1832,175997
2020-03-23,0.4,0.35,0.39,0.39,111700.0,0.39,0.38,-43.8597,0.7755,1.01075,1.0812,1.1668,178342
2020-03-25,0.53,0.4,0.43,0.47,590200.0,0.47,0.466667,138.643,0.704,0.971,1.0422,1.1521,186807
2020-03-27,0.42,0.37,0.4,0.39,112500.0,0.39,0.393333,-63.4921,0.635,0.92725,1.0032,1.1367,179088
2020-03-31,0.4,0.35,0.36,0.36,236500.0,0.36,0.37,-71.7761,0.5605,0.882,0.9622,1.1189,179925.0
2020-04-02,0.41,0.34,0.35,0.39,566700.0,0.39,0.38,41.6667,0.4885,0.836,0.9228,1.1015,190090.0
2020-04-06,0.43,0.38,0.4,0.41,126400.0,0.41,0.406667,72.6496,0.446,0.79175,0.8874,1.0851,190152
2020-04-08,0.45,0.39,0.4,0.45,74400.0,0.45,0.43,125,0.417,0.751,0.8548,1.0701,189342
2020-04-13,0.5,0.42,0.49,0.43,199900.0,0.43,0.45,41.1985,0.4105,0.712,0.8222,1.0557,193177
2020-04-15,0.46,0.4,0.41,0.43,92500.0,0.43,0.43,-75.7575,0.4055,0.67375,0.789,1.0419,192812
2020-04-17,0.44,0.38,0.42,0.44,93100.0,0.44,0.42,-75.3968,0.4095,0.634,0.7546,1.0276,192440.0
2020-04-21,0.43,0.38,0.43,0.42,73700.0,0.42,0.41,-125,0.4135,0.5945,0.72,1.0133,190303
2020-04-23,0.47,0.4,0.43,0.45,115300.0,0.45,0.44,118.28,0.413,0.5585,0.688,0.9991,189103
2020-04-27,0.5,0.43,0.5,0.47,85000.0,0.47,0.466667,77.9221,0.4195,0.52725,0.657,0.9858,189307
2020-04-29,0.58,0.47,0.48,0.56,347600.0,0.56,0.536667,166.667,0.435,0.49775,0.6296,0.9734,193215.0
2020-05-01,0.67,0.51,0.64,0.57,235500.0,0.57,0.583333,58.1395,0.458,0.47325,0.6046,0.962,199242
2020-05-05,0.63,0.56,0.57,0.56,265000.0,0.56,0.583333,9.25927,0.473,0.4595,0.5782,0.9494,203947
2020-05-07,0.59,0.54,0.55,0.55,70500.0,0.55,0.56,-50,0.4845,0.45075,0.5534,0.936,204333
2020-05-11,0.56,0.5,0.56,0.52,87200.0,0.52,0.526667,-95.2381,0.4925,0.4515,0.5314,0.9212,204493
2020-05-13,0.5,0.46,0.48,0.49,62200.0,0.49,0.483333,-96.4912,0.498,0.45175,0.5068,0.9055,200357
2020-05-15,0.5,0.45,0.47,0.5,91000.0,0.5,0.483333,-31.6092,0.504,0.45675,0.4828,0.8868,198998
2020-05-19,0.53,0.48,0.48,0.52,198500.0,0.52,0.51,64.6766,0.5135,0.4635,0.4704,0.8679,202215.0
2020-05-21,0.57,0.51,0.54,0.57,88300.0,0.57,0.55,125,0.525,0.469,0.464,0.8503,200997
2020-05-26,0.57,0.51,0.52,0.56,183000.0,0.56,0.546667,50.3145,0.534,0.47675,0.4652,0.8327,193248
2020-05-28,0.56,0.51,0.56,0.54,149800.0,0.54,0.536667,-142.857,0.5365,0.48575,0.4674,0.8144,194997
2020-06-01,0.56,0.51,0.51,0.52,117900.0,0.52,0.53,-43.0107,0.5295,0.49375,0.473,0.7967,197190.0
2020-06-03,0.56,0.5,0.52,0.54,166400.0,0.54,0.533333,55.5556,0.527,0.5,0.4788,0.78,184008
2020-06-05,0.67,0.61,0.64,0.63,422100.0,0.63,0.636667,139.48,0.534,0.50925,0.4854,0.7638,189168
2020-06-09,0.73,0.64,0.73,0.69,268500.0,0.69,0.686667,66.8168,0.5505,0.5215,0.4976,0.7504,187493
2020-06-11,0.6,0.54,0.56,0.57,164300.0,0.57,0.57,-130.631,0.5615,0.52975,0.5072,0.7347,190717
2020-06-15,0.6,0.55,0.57,0.59,103800.0,0.59,0.58,-61.4657,0.5725,0.53825,0.5164,0.7196,186730.0
2020-06-17,0.6,0.55,0.58,0.58,110300.0,0.58,0.576667,-48.2456,0.5785,0.546,0.5234,0.7054,183423
2020-06-19,0.59,0.55,0.56,0.55,196300.0,0.55,0.563333,-111.111,0.579,0.552,0.5288,0.6918,175215.0
2020-06-23,0.6,0.56,0.57,0.58,180500.0,0.58,0.58,103.175,0.582,0.558,0.5338,0.678,173395.0
2020-06-25,0.59,0.54,0.56,0.56,70600.0,0.56,0.563333,-66.6666,0.585,0.56075,0.5392,0.6641,168802
2020-06-29,0.59,0.53,0.57,0.56,142600.0,0.56,0.56,-64.5162,0.5885,0.559,0.5446,0.6496,157128
2020-07-01,0.64,0.55,0.57,0.59,105800.0,0.59,0.593333,162.162,0.5935,0.56025,0.5508,0.6354,153117
2020-07-06,0.73,0.6,0.63,0.62,558700.0,0.62,0.65,152.015,0.5935,0.56375,0.5576,0.6228,160932
2020-07-08,0.64,0.6,0.64,0.63,140600.0,0.63,0.623333,29.5699,0.585,0.56775,0.5638,0.6104,159258
2020-07-10,0.63,0.56,0.56,0.6,77900.0,0.6,0.596667,-101.852,0.585,0.57325,0.5672,0.5984,158983
2020-07-14,0.6,0.58,0.59,0.59,102500.0,0.59,0.59,-92.1053,0.585,0.57875,0.5672,0.5859,159268
2020-07-16,0.61,0.59,0.6,0.6,46100.0,0.6,0.6,76.923,0.5865,0.5825,0.5688,0.5735,158323
2020-07-20,0.61,0.56,0.61,0.58,77800.0,0.58,0.583333,-65.2174,0.5885,0.58375,0.5704,0.5619,158213
2020-07-22,0.66,0.6,0.63,0.61,599100.0,0.61,0.623333,134.503,0.5895,0.58575,0.5726,0.552,168215.0
2020-07-24,0.6,0.57,0.6,0.59,114600.0,0.59,0.586667,-36.7232,0.592,0.5885,0.5768,0.5418,165845.0
2020-07-28,0.6,0.57,0.57,0.59,123700.0,0.59,0.586667,-50.3145,0.5945,0.5915,0.5808,0.5318,161723
2020-07-30,0.59,0.56,0.59,0.57,120800.0,0.57,0.573333,-156.863,0.5945,0.594,0.5832,0.5268,158982
2020-08-03,0.58,0.56,0.57,0.57,96000.0,0.57,0.57,-98.7654,0.591,0.59225,0.584,0.524,159690.0
2020-08-05,0.62,0.59,0.59,0.6,190700.0,0.6,0.603333,113.821,0.5895,0.58725,0.586,0.5256,165008
2020-08-07,0.6,0.57,0.59,0.6,79800.0,0.6,0.59,-17.5438,0.59,0.5875,0.5886,0.528,164493
2020-08-11,0.63,0.58,0.62,0.61,108600.0,0.61,0.606667,41.6666,0.592,0.5885,0.5922,0.5326,165810.0
2020-08-13,0.6,0.58,0.6,0.6,82200.0,0.6,0.593333,-55.5556,0.5925,0.5895,0.595,0.5369,166182
2020-08-17,0.61,0.59,0.59,0.6,188900.0,0.6,0.6,37.0371,0.594,0.59125,0.5944,0.5399,166277
2020-08-19,0.6,0.56,0.6,0.6,277100.0,0.6,0.586667,-101.852,0.595,0.59225,0.5904,0.544,167387
2020-08-21,0.57,0.53,0.56,0.57,314100.0,0.57,0.556667,-103.825,0.5925,0.59225,0.5892,0.5482,170888
2020-08-25,0.57,0.52,0.52,0.55,89700.0,0.55,0.546667,-55.5555,0.5875,0.591,0.5868,0.5516,170383
2020-08-27,0.58,0.53,0.58,0.55,249300.0,0.55,0.553333,43.4783,0.5845,0.5895,0.5856,0.5545,170673
2020-08-31,0.56,0.53,0.55,0.55,52900.0,0.55,0.546667,-55.5556,0.582,0.5865,0.5852,0.557,161068
2020-09-02,0.55,0.53,0.53,0.53,145000.0,0.53,0.536667,-105.263,0.5755,0.5825,0.5834,0.5586,152285.0
2020-09-04,0.54,0.49,0.52,0.5,191800.0,0.5,0.51,-109.929,0.5655,0.57775,0.5808,0.56,150373
2020-09-09,0.49,0.45,0.49,0.47,95800.0,0.47,0.47,-92.803,0.5515,0.57175,0.5774,0.561,151893
2020-09-11,0.47,0.43,0.45,0.45,117800.0,0.45,0.45,-91.3978,0.5365,0.5645,0.5722,0.5615,152468
2020-09-15,0.5,0.46,0.46,0.46,122500.0,0.46,0.473333,96.7742,0.523,0.5585,0.5662,0.5619,151812
2020-09-17,0.48,0.43,0.45,0.44,344100.0,0.44,0.45,-74.7127,0.5075,0.55125,0.5594,0.5616,153795.0
2020-09-21,0.42,0.39,0.39,0.41,127300.0,0.41,0.406667,-107.843,0.492,0.54225,0.552,0.5596,159715.0
2020-09-23,0.42,0.38,0.41,0.41,633600.0,0.41,0.403333,-60.3448,0.479,0.53325,0.5444,0.5558,169197
2020-09-25,0.41,0.39,0.4,0.4,200200.0,0.4,0.4,-83.3333,0.464,0.52425,0.5366,0.5527,169740.0
2020-09-29,0.42,0.38,0.38,0.41,305500.0,0.41,0.403333,71.4285,0.4485,0.51525,0.5292,0.5498,165615.0
2020-10-01,0.41,0.38,0.41,0.4,124600.0,0.4,0.396667,-31.25,0.4355,0.5055,0.5218,0.5472,165575.0
2020-10-05,0.41,0.39,0.4,0.4,131400.0,0.4,0.4,12.8205,0.425,0.49525,0.514,0.5454,167063
2020-10-07,0.41,0.39,0.4,0.41,129000.0,0.41,0.403333,76.9231,0.418,0.48475,0.5068,0.5438,170098
2020-10-09,0.52,0.44,0.52,0.48,438100.0,0.48,0.48,67.5105,0.423,0.47975,0.5036,0.5434,197080.0
2020-10-13,0.46,0.41,0.43,0.44,247600.0,0.44,0.436667,-42.4528,0.4215,0.47225,0.4984,0.5412,200720.0
2020-10-15,0.48,0.42,0.42,0.46,210700.0,0.46,0.453333,10.2041,0.422,0.46475,0.4924,0.5392,193565.0
2020-10-19,0.48,0.44,0.46,0.44,93900.0,0.44,0.453333,64.5161,0.425,0.4585,0.486,0.5373,192878
2020-10-21,0.45,0.44,0.45,0.44,74700.0,0.44,0.443333,-166.667,0.4285,0.45375,0.479,0.5356,190080.0
2020-10-23,0.5,0.41,0.48,0.42,1523200.0,0.42,0.443333,-79.7102,0.432,0.448,0.4724,0.5337,263495.0
2020-10-27,0.42,0.4,0.41,0.4,122300.0,0.4,0.406667,-78.1893,0.4325,0.4405,0.4646,0.5295,267758
2020-10-29,0.41,0.38,0.39,0.38,157500.0,0.38,0.39,-75.7576,0.4305,0.433,0.456,0.5232,263833
2020-11-02,0.4,0.37,0.37,0.39,152600.0,0.39,0.386667,-60.606,0.4295,0.42725,0.4488,0.519,265803
2020-11-04,0.43,0.4,0.43,0.41,41900.0,0.41,0.413333,83.3334,0.4305,0.42425,0.444,0.5154,264038
2020-11-06,0.43,0.4,0.42,0.43,92100.0,0.43,0.42,78.4314,0.423,0.423,0.439,0.5123,262367
2020-11-10,0.43,0.41,0.42,0.43,270500.0,0.43,0.423333,72.9167,0.421,0.42125,0.434,0.5096,280547
2020-11-12,0.44,0.42,0.44,0.43,65000.0,0.43,0.43,58.8235,0.4195,0.42075,0.43,0.5067,283742
2020-11-16,0.46,0.42,0.43,0.44,386100.0,0.44,0.44,129.63,0.4185,0.42175,0.4272,0.504,285268
2020-11-18,0.46,0.42,0.42,0.45,347300.0,0.45,0.443333,98.7654,0.418,0.42325,0.4256,0.5015,292298
2020-11-20,0.48,0.46,0.47,0.47,145800.0,0.47,0.47,116.667,0.421,0.4265,0.4262,0.4992,291027
2020-11-24,0.53,0.48,0.5,0.49,806500.0,0.49,0.5,148.148,0.4295,0.431,0.4272,0.4967,305820.0
2020-11-27,0.54,0.51,0.54,0.53,321300.0,0.53,0.526667,89.4309,0.444,0.43725,0.4306,0.495,319082
2020-12-01,0.53,0.49,0.53,0.5,167200.0,0.5,0.506667,-55.5555,0.4555,0.4425,0.4342,0.4931,319445.0
2020-12-03,1.02,0.5,0.51,0.64,21854500.0,0.64,0.72,166.667,0.4715,0.451,0.441,0.4927,684070.0
2020-12-07,0.85,0.7,0.79,0.83,2286000.0,0.83,0.793333,87.9968,0.507,0.465,0.4562,0.4964,760192
2020-12-09,0.95,0.88,0.95,0.94,797100.0,0.94,0.923333,101.947,0.5555,0.48825,0.4768,0.503,786793
2020-12-11,1.05,0.92,1.04,0.93,839000.0,0.93,0.966667,61.756,0.6095,0.5145,0.4996,0.5107,806837
2020-12-15,1.03,0.93,1.0,0.95,284000.0,0.95,0.97,27.7778,0.66,0.53925,0.5212,0.5176,815040.0
2020-12-17,0.98,0.92,0.95,0.95,264000.0,0.95,0.95,-51.2821,0.71,0.564,0.5424,0.5246,809252
2020-12-21,0.9,0.81,0.89,0.83,634000.0,0.83,0.846667,-161.247,0.75,0.5855,0.557,0.5303,823353
2020-12-23,0.96,0.87,0.88,0.95,201100.0,0.95,0.926667,43.2099,0.793,0.61125,0.5758,0.5371,824007
2020-12-28,1.01,0.92,1.01,0.95,241200.0,0.95,0.96,57.0902,0.838,0.641,0.597,0.5447,825328
2020-12-30,0.95,0.85,0.85,0.87,544600.0,0.87,0.89,-108.108,0.876,0.66575,0.6146,0.5503,832593
2021-01-04,0.96,0.88,0.95,0.91,306600.0,0.91,0.916667,-35.7143,0.912,0.69175,0.6344,0.5567,838083
2021-01-06,1.05,0.94,0.96,0.99,507000.0,0.99,0.993333,129.63,0.931,0.719,0.6558,0.5641,824225.0
2021-01-08,1.15,0.99,1.01,1.14,1004400.0,1.14,1.09333,146.63,0.947,0.75125,0.6826,0.5736,839408
2021-01-12,1.21,1.12,1.13,1.16,407500.0,1.16,1.16333,88.0376,0.963,0.78625,0.7126,0.5843,846407
2021-01-14,1.19,1.12,1.16,1.18,639600.0,1.18,1.16333,83.3333,0.984,0.822,0.743,0.5959,859440.0
2021-01-19,1.21,1.14,1.16,1.15,385000.0,1.15,1.16667,62.5,1.0065,0.85825,0.7728,0.6084,870975.0
2021-01-21,1.17,1.06,1.13,1.15,892700.0,1.15,1.12667,-89.9472,1.034,0.892,0.8014,0.6202,823427
2021-01-25,1.12,1.04,1.12,1.08,298200.0,1.08,1.08,-135.417,1.052,0.9225,0.8282,0.6311,826577
2021-01-27,1.14,1.0,1.02,1.03,438500.0,1.03,1.05667,-48.6111,1.058,0.948,0.8524,0.6412,834215.0
2021-01-29,1.11,1.02,1.07,1.04,702400.0,1.04,1.05667,-28.0528,1.075,0.9755,0.8772,0.6522,857432
2021-02-02,1.16,1.07,1.07,1.13,468600.0,1.13,1.12,79.1246,1.093,1.0025,0.9044,0.665,867097
2021-02-04,1.3,1.18,1.22,1.23,860500.0,1.23,1.23667,106.987,1.1185,1.02475,0.9348,0.6805,896763
2021-02-08,1.32,1.23,1.27,1.32,907700.0,1.32,1.29,92.1053,1.141,1.044,0.9672,0.6972,894593
2021-02-10,1.45,1.26,1.35,1.39,976500.0,1.39,1.36667,98.0392,1.165,1.064,1.001,0.7158,916210.0
2021-02-12,1.43,1.34,1.41,1.4,487600.0,1.4,1.39,78.078,1.1895,1.08675,1.0366,0.7354,923902
2021-02-17,1.42,1.31,1.38,1.39,623600.0,1.39,1.37333,-60.1854,1.2145,1.1105,1.07,0.7555,934877
2021-02-19,1.39,1.3,1.38,1.38,252300.0,1.38,1.35667,-125,1.2385,1.13625,1.094,0.7751,937113
2021-02-23,1.49,1.32,1.45,1.48,464300.0,1.48,1.43,79.646,1.2765,1.16425,1.1166,0.7967,935285.0
2021-02-25,1.62,1.41,1.58,1.45,539200.0,1.45,1.49333,44.7531,1.324,1.191,1.1382,0.8189,939645.0
2021-03-01,1.58,1.46,1.51,1.5,506400.0,1.5,1.51333,40.8389,1.366,1.2205,1.1596,0.8404,948562
2021-03-03,1.52,1.44,1.46,1.47,338900.0,1.47,1.47667,-11.9047,1.4015,1.24725,1.181,0.8617,590133
2021-03-05,1.56,1.42,1.49,1.52,614300.0,1.52,1.5,60.1851,1.428,1.27325,1.206,0.8815,532353
2021-03-09,1.57,1.5,1.56,1.55,257200.0,1.55,1.54,95.2381,1.452,1.2965,1.2308,0.9033,510162
2021-03-11,1.79,1.54,1.6,1.72,759200.0,1.72,1.68333,166.667,1.48,1.3225,1.2578,0.9274,503713
2021-03-15,1.94,1.68,1.73,1.81,923800.0,1.81,1.81,111.44,1.5145,1.352,1.292,0.9533,506647
2021-03-17,1.8,1.69,1.8,1.7,377200.0,1.7,1.73,-18.018,1.547,1.38075,1.324,0.9792,513278
2021-03-19,1.7,1.55,1.62,1.68,345300.0,1.68,1.64333,-93.1143,1.574,1.40625,1.3512,1.0035,507857
2021-03-23,1.67,1.53,1.66,1.57,447800.0,1.57,1.59,-137.978,1.5875,1.432,1.3728,1.0277,510907
2021-03-25,1.62,1.45,1.62,1.6,291300.0,1.6,1.55667,-111.559,1.596,1.46,1.3914,1.052,514625.0
2021-03-29,1.64,1.52,1.62,1.54,197300.0,1.54,1.56667,-67.0104,1.608,1.487,1.4092,1.0761,510042
2021-03-31,1.59,1.55,1.59,1.58,95600.0,1.58,1.57333,-10.101,1.617,1.50925,1.4252,1.099,501250.0
2021-04-05,1.66,1.53,1.66,1.55,498800.0,1.55,1.58,7.04216,1.626,1.527,1.4428,1.1221,499530.0
2021-04-07,1.58,1.42,1.51,1.46,233300.0,1.46,1.48667,-134.293,1.621,1.5365,1.4584,1.1433,488748
2021-04-09,1.51,1.45,1.48,1.47,182900.0,1.47,1.47667,-59.2841,1.604,1.542,1.4762,1.1643,480583
2021-04-13,1.51,1.43,1.46,1.47,331500.0,1.47,1.47,-33.3334,1.5765,1.5455,1.4926,1.1849,473272
2021-04-15,1.61,1.54,1.58,1.59,141200.0,1.59,1.58,107.843,1.5615,1.55425,1.5114,1.2079,464590.0
2021-04-19,1.57,1.5,1.5,1.54,83700.0,1.54,1.53667,1.6835,1.55,1.562,1.5238,1.2293,439482
2021-04-20,1.54,1.52,1.54,1.53,14537.0,1.53,1.53,-93.7502,1.544,1.5635,1.529,1.2398,434163.95